CH1,CH2,CH3,CH4,CH5,CH6,CH7,CH8,Vbat,Trigger,AccX,AccY,AccZ,GyX,GyY,GyZ,N,fs,Timestamp
-511.70961511589104,-737.304407741642,-882.4435659439771,-1452.4119753128302,-2765.21293285111,-1514.3404587339598,-34.131347527611105,-166.321846829262,3426,0,-589,14563,4952,1926,-151,359,679332,500,2.5902480000000003
-721.0686953045371,-947.955836994923,-973.9538962569791,-1186.3685716622301,-1464.75485814371,-736.63411972567,-59.334180521837,-300.513799517299,3426,0,-589,14563,4952,1926,-151,359,679333,500,2.59031
-511.40535599031097,-549.754267545301,-475.985454156646,-368.096757917461,-600.833887730172,-409.83409009862197,-183.59458510775602,-326.687344967388,3426,0,-589,14563,4952,1926,-151,359,679334,500,2.590367
-260.61535614877397,-231.03477277921002,216.51986733696,1095.8436060669198,1041.35670638265,394.867941982986,-224.808849828842,-215.38423666055303,3426,0,-589,14563,4952,1926,-151,359,679335,500,2.590424
5.93422574776923,26.076388368383004,290.208593407646,927.615588993358,1993.2140648675602,1516.4480303840198,-65.7566161886207,-61.7377758999355,3426,0,-837,15024,4902,950,-626,212,679336,500,2.590482
294.992353534035,606.918293225463,1150.0127755062401,2121.8906385800196,987.351382520719,565.913984983868,-45.825005848193506,57.1987695873249,3426,0,-837,15024,4902,950,-626,212,679337,500,2.591743
337.955108695722,417.28579281002703,202.34148296050301,212.60510797618198,1060.30075978441,509.674536889012,15.596843563253099,269.05370883469,3426,0,-837,15024,4902,950,-626,212,679338,500,2.591815
284.968451069552,385.029438630561,134.03710757033002,81.11624361705621,991.1855887988349,149.03729394055,-225.847813196422,134.416272486793,3426,0,-837,15024,4902,950,-626,212,679339,500,2.591888
231.638555456389,374.02946263703103,352.779375252663,531.614034088445,111.99766593571998,-620.500673450297,-209.869443341566,88.9045641040429,3426,0,-837,15024,4902,950,-626,212,679340,500,2.591971
183.934278056317,251.852595272474,205.06504928914399,547.166838023259,-352.75451628831803,-1005.7620945563499,-79.8015528803808,142.338591761072,3426,0,-837,15024,4902,950,-626,212,679341,500,2.592042
-199.067735207675,-637.968049689778,-1342.9886914301899,-1668.4564425238598,-1253.90620971474,-1077.11788764002,-48.7419321223279,11.2566987221362,3426,0,-837,15024,4902,950,-626,212,679342,500,2.592114
-187.730534963397,-436.449535610387,-673.491149668815,-383.202703649906,40.4990369200823,-49.450705961207895,-116.44914791296499,-75.45761816168671,3426,0,-837,15024,4902,950,-626,212,679343,500,2.592193
96.7526801709027,-160.911963278195,-210.08326348813702,406.036592022283,1066.32683335035,944.516415833437,192.32981432217602,163.86893191014,3426,0,-837,15024,4902,950,-626,212,679344,500,2.5922810000000003
129.24295300987401,-120.35182622226401,-60.515438652597396,425.188172035239,1076.61244173406,1104.2058218222198,319.364669402537,185.551188635174,3426,0,-837,15024,4902,950,-626,212,679345,500,2.5923730000000003
320.321827289212,164.1681093066,300.842433560756,604.077060571202,1060.8899645403399,1196.27048001852,428.90066570841003,411.667135199532,3426,0,-961,15334,4708,-1261,-574,59,679346,500,2.5925160000000003
993.9501595932229,1220.25066702801,1594.77867082832,1018.2136777239801,713.4109489322,829.0214841878039,457.552266747807,795.9301322037351,3426,0,-961,15334,4708,-1261,-574,59,679347,500,2.59261
908.848903625389,1079.54535896017,1314.29972637992,868.6532738060339,274.843559288012,461.35737420228503,612.033898504975,891.151858401601,3426,0,-961,15334,4708,-1261,-574,59,679348,500,2.592709
1122.89860533871,1487.1152553974,1316.51449614891,1043.89401607038,462.83356458862505,547.4398077820659,607.550467315421,909.6247936116999,3426,0,-961,15334,4708,-1261,-574,59,679349,500,2.592803
1553.84916625448,1923.32452155172,1558.1428123985002,768.725856711069,-428.76314117727503,-93.0090020850766,754.148623621266,1112.6681638144698,3426,0,-961,15334,4708,-1261,-574,59,679350,500,2.592902
1582.85236612841,1548.0827945442902,1505.52492786897,1387.36045713819,921.751475400524,132.146688897163,743.862081587373,1181.95780306193,3426,0,-961,15334,4708,-1261,-574,59,679351,500,2.5929990000000003
892.9527209141229,669.661937728408,897.007145330426,1043.22505363595,1304.3497501837,593.9783439898159,640.26266277954,778.3063123350729,3426,0,-961,15334,4708,-1261,-574,59,679352,500,2.5931230000000003
646.894260108762,429.238277283031,816.776285704691,948.801556321792,1158.41474335268,1062.93812493561,334.213869452477,508.852032821975,3426,0,-961,15334,4708,-1261,-574,59,679353,500,2.5932410000000004
362.145811775728,437.25547671434504,1202.58855022991,1592.87971932854,413.040201593802,1101.67025583924,-87.27570540946908,280.505046676495,3426,0,-961,15334,4708,-1261,-574,59,679354,500,2.6531900000000004
921.648397090466,1844.3501659669,3084.0925609915303,4027.5330212209706,835.6657243452789,590.333793613245,-583.991816823836,327.28509362763697,3426,0,-961,15334,4708,-1261,-574,59,679355,500,2.653252
238.90122864136399,787.19760554377,1230.3373303307499,1782.87969565875,1499.42986612607,771.044584705669,-360.972284584132,285.024700678769,3426,0,-941,15359,4554,-1718,-316,110,679356,500,2.6533040000000003
519.660889504681,769.755604970618,225.48636074154598,-264.875869747309,1776.2288795770398,1667.94700165238,492.292760359589,696.429169545067,3426,0,-941,15359,4554,-1718,-316,110,679357,500,2.653356
1382.2106442128102,1626.99794411135,1165.01771543338,780.64573458847,1368.78538926644,1163.33257651003,964.215704859351,1061.92517172615,3426,0,-941,15359,4554,-1718,-316,110,679358,500,2.65341
1531.3561822253698,1665.55563556449,1471.6792364560501,1486.13789588134,1350.9560922753,902.479409245832,763.403776710446,970.6607053556951,3426,0,-941,15359,4554,-1718,-316,110,679359,500,2.653467
1470.8861665851998,1544.5670778644298,1358.07379431592,1316.21493487255,1212.05939790551,780.991565126867,290.795629969216,784.1044638154559,3426,0,-941,15359,4554,-1718,-316,110,679360,500,2.653524
909.271713288617,1147.77359600866,1219.0026078604901,1274.5680821148899,1528.9917196339802,729.5586935490719,-350.82142250408697,271.910869944142,3426,0,-941,15359,4554,-1718,-316,110,679361,500,2.6535840000000004
225.44791438485802,163.617389979656,254.823389874306,617.268611102743,930.640922579914,540.6087519357679,-1040.06210172642,-86.8227580805542,3426,0,-941,15359,4554,-1718,-316,110,679362,500,2.653646
-722.131737804651,-1319.0408521099,-1347.23539060866,-619.150886788266,278.113445608324,467.284250964702,-1334.08755765774,-472.87305802258203,3426,0,-941,15359,4554,-1718,-316,110,679363,500,2.653709
-1157.99547190013,-1360.0874967876598,-1132.54181342619,-399.17379854919295,708.9571811792849,514.106634681055,-1084.78470670857,-779.552906710771,3426,0,-941,15359,4554,-1718,-316,110,679364,500,2.653778
-997.0917493749879,-680.102146849851,-440.50540745735606,-326.021295943938,264.86480731188203,403.31222717528,-672.596919446834,-758.411120709963,3426,0,-941,15359,4554,-1718,-316,110,679365,500,2.653848
-465.503391898004,-214.28713328205,-362.285233502043,-590.64950734697,-665.596618117124,-320.249622528558,-339.067298694281,-506.954458969296,3426,0,-825,15371,4409,560,-475,218,679366,500,2.653919
-588.457728565234,-665.546067569405,-781.900786047219,-862.881124759762,-781.465497604106,-823.0952368873401,-127.945242563263,-471.279759127996,3426,0,-825,15371,4409,560,-475,218,679367,500,2.653995
-965.2463405567689,-1611.9917734974301,-1560.9504621572598,-1190.31033945983,-978.337709694519,-1476.64102380839,-53.610369960137206,-428.08209931606,3426,0,-825,15371,4409,560,-475,218,679368,500,2.65408
-1423.74774022654,-2515.74905497185,-2205.99197833124,-1149.89283908825,-858.689209770964,-1734.40646495996,-278.325558862882,-613.968734181719,3426,0,-825,15371,4409,560,-475,218,679369,500,2.654163
-1429.2817726557598,-1907.56479419349,-1862.0642059841198,-1046.33519115316,-914.406770388159,-1165.06926679413,-119.61879952927099,-722.9789912042909,3426,0,-825,15371,4409,560,-475,218,679370,500,2.6542470000000002
-586.031301091745,85.337942633545,-232.475620628684,-561.437385811849,-969.392666038533,-815.4578480571511,-278.900566470751,-617.9378796302481,3426,0,-825,15371,4409,560,-475,218,679371,500,2.654332
-741.07200471143,-445.921582288691,-731.9575371986721,-1337.67442427002,-1807.71969094791,-1167.79021191131,-467.982189736154,-633.433813819196,3426,0,-825,15371,4409,560,-475,218,679372,500,2.65442
-1589.7699091984,-1707.8890762453698,-1570.00325391896,-1365.8119853133999,-1203.51852574974,-828.004470913438,-629.840577989642,-981.6163903789129,3426,0,-825,15371,4409,560,-475,218,679373,500,2.654515
-1721.25344843385,-2378.65124145302,-2179.89157303551,-1276.2825251880301,-483.590764203545,-74.06224706897049,-397.123216824606,-856.364169324283,3426,0,-825,15371,4409,560,-475,218,679374,500,2.6546100000000004
-1082.8616423275998,-1642.74271205522,-1650.20118009194,-1000.9967219141802,-547.756460518896,78.1950011466397,-132.51528973371,-427.56237160193297,3426,0,-825,15371,4409,560,-475,218,679375,500,2.6547050000000003
162.729468143632,600.497190552182,92.2659571293043,-498.56023187853896,-559.424570840289,-63.6135864274111,-184.236619390955,-230.672753430787,3426,0,-802,15580,4371,780,-436,396,679376,500,2.654801
208.213905327517,821.251564022736,273.656862763106,-686.075961747003,-754.768086319236,-476.92902434291295,-252.198520947248,-252.869497604901,3426,0,-802,15580,4371,780,-436,396,679377,500,2.6559820000000003
-232.819758460158,-244.703216786264,-508.180797826382,-853.335678954085,-851.249186124478,-672.402636757586,-83.7839637235156,-192.298190998961,3426,0,-802,15580,4371,780,-436,396,679378,500,2.65612
-385.119047388987,-574.883395364974,-578.65019627125,-675.630741753033,-748.736541180697,-796.840336040477,-120.19349206041099,-247.750312496559,3426,0,-802,15580,4371,780,-436,396,679379,500,2.656235
-463.95160839825996,-702.1685320110989,-586.604614380863,-534.899566311709,-606.731084487517,-751.749696389888,-157.137375448248,-320.38767094072,3426,0,-802,15580,4371,780,-436,396,679380,500,2.656349
-945.24250999224,-1587.05876433139,-1324.8402009840402,-1049.7898840161802,-1126.32269353955,-1084.8162344825698,-160.820118077274,-505.392453235225,3426,0,-802,15580,4371,780,-436,396,679381,500,2.656464
-1252.5429301833199,-1750.30778918439,-1271.72653286986,-983.8238067936039,-1139.52716720293,-996.3074992250191,-104.825785230205,-585.7112339232119,3426,0,-802,15580,4371,780,-436,396,679382,500,2.656577
-1397.9510385269198,-1391.72021688451,-930.0460795169929,-544.9943041522059,-267.094104994641,-326.529638869804,-193.619797842635,-761.397418334498,3426,0,-802,15580,4371,780,-436,396,679383,500,2.656705
-1862.46851999642,-1779.8844945853302,-1339.89318671951,-271.61659749705,608.3670921892041,284.21590277866903,-213.722623296897,-936.847285973723,3426,0,-802,15580,4371,780,-436,396,679384,500,2.71614
-1798.40157740578,-2079.65692913567,-1489.17683468305,-172.566487903619,889.5427496470801,674.661706796382,-187.85369460505902,-815.9205134235091,3426,0,-802,15580,4371,780,-436,396,679385,500,2.716203
-696.59927501413,-821.385088163428,-469.879699365469,66.36544302169929,421.862526694546,451.038754379377,-146.400502262579,-452.01025848672697,3426,0,-840,15465,4469,-2369,215,-62,679386,500,2.7162550000000003
553.45188529187,728.27349886368,431.369960168144,96.605550286884,-380.848911704117,-84.82689936843241,-124.34040589392,-10.145776807330499,3426,0,-840,15465,4469,-2369,215,-62,679387,500,2.716307
998.8363664853099,1263.8116232075301,555.169666655711,-149.79723132570498,-1276.8709017146,-715.359549136832,-124.41333220311199,233.414398310706,3426,0,-840,15465,4469,-2369,215,-62,679388,500,2.716362
639.647769316565,666.697924853768,-142.439076819806,-649.5036413852359,-1630.99291862643,-1089.55358273047,-230.81131876906102,72.4503823758569,3426,0,-840,15465,4469,-2369,215,-62,679389,500,2.716418
252.125934787939,-17.391174356802402,-600.781479317695,-1493.7367606505,-2670.2886529127104,-1716.41228792025,-180.84715114365102,-10.981668193009698,3426,0,-840,15465,4469,-2369,215,-62,679390,500,2.716476
-166.341352250805,-642.255745983799,-856.6148489736951,-1484.67179738355,-2146.25688761001,-1606.95953043003,-241.805669372203,-210.63346405339001,3426,0,-840,15465,4469,-2369,215,-62,679391,500,2.716536
-749.5069809110139,-1138.05487517209,-594.459236939554,406.493663889472,1888.1831452537199,286.95150830299804,-237.399953649379,-463.433571324567,3426,0,-840,15465,4469,-2369,215,-62,679392,500,2.716599
-607.875920889404,-603.06548945501,-297.791698025074,580.682973871502,1388.38450664183,351.563469724322,-134.659060439735,-336.428733809502,3426,0,-840,15465,4469,-2369,215,-62,679393,500,2.716666
79.564523279987,274.071645806194,389.70006440021103,1111.41666387496,1724.55094059362,895.334228799504,-144.495477924997,-165.28438293817499,3426,0,-840,15465,4469,-2369,215,-62,679394,500,2.716736
109.50088943197599,66.9985117402393,60.9325338870985,261.127936971374,1085.5616146255302,763.488102066389,-188.984510914888,-92.66415750049049,3426,0,-840,15465,4469,-2369,215,-62,679395,500,2.7168050000000004
30.740775098413,31.4455098028993,-58.0263158351881,-236.70405737424198,366.065868220408,704.808225826884,-142.479647006723,-126.284270984121,3426,0,-983,14929,4695,-2481,-84,-317,679396,500,2.716892
360.398971874529,583.639305050834,-274.871979717514,-1320.5827090830699,-1814.21004990605,-803.0423390412469,111.143034437962,87.963235580828,3426,0,-983,14929,4695,-2481,-84,-317,679397,500,2.716966
703.81374867179,883.459172499133,-188.887552744476,-1420.97789612642,-2897.9168922007107,-2273.15044563846,120.113813932461,284.625611602212,3426,0,-983,14929,4695,-2481,-84,-317,679398,500,2.717045
588.770360191324,681.633396165329,87.82355807872949,-643.5793996165451,-1996.3842839896697,-1804.89310755068,-40.9627581710229,199.57823135436,3426,0,-983,14929,4695,-2481,-84,-317,679399,500,2.717146
244.591378072568,293.489450032474,-43.37903228809589,-187.900002574286,-304.078288063232,-527.5405268500331,-126.489002485352,-0.683236592449248,3426,0,-983,14929,4695,-2481,-84,-317,679400,500,2.717231
29.9128783535853,90.04914009466299,-164.991515577189,-240.739295924897,-229.843855080369,-207.19633212138402,-151.317470857757,-128.88160797907,3426,0,-983,14929,4695,-2481,-84,-317,679401,500,2.717318
89.2068069625238,189.257200788124,145.21328848938,350.044546042249,35.2656004118035,336.723487008363,-79.4365600934252,-110.38704746053601,3426,0,-983,14929,4695,-2481,-84,-317,679402,500,2.717407
48.382155668427,136.169509187574,342.226521488046,748.600241843815,927.0981730473579,1006.9997217399699,-122.730991275632,-157.706367544597,3426,0,-983,14929,4695,-2481,-84,-317,679403,500,2.7175040000000004
143.214911372517,103.61435081251,415.529015428852,1071.5934890421902,843.8234336485331,711.8884905166341,30.2880628434359,-15.616792028536999,3426,0,-983,14929,4695,-2481,-84,-317,679404,500,2.717603
202.07667384773998,116.18025316298001,152.01357623015102,353.04009673633794,18.233292872580897,161.066849136725,114.81405279279,80.97417009307541,3426,0,-983,14929,4695,-2481,-84,-317,679405,500,2.717699
328.763946381747,471.42714318679606,320.087554449681,-80.2925111578952,305.01688603044,297.833654600312,-35.2503830796923,57.1061908706324,3426,0,-902,14554,4915,-175,-123,-53,679406,500,2.7177930000000003
153.744896007091,186.221658367664,-104.23519340285601,-583.735304444737,109.221502755739,320.587525984738,44.1284404194448,20.6153287873603,3426,0,-902,14554,4915,-175,-123,-53,679407,500,2.717903
179.654677138082,285.175289003993,302.548174605821,437.576023871923,1230.59322079699,706.7558120730679,136.42671172705,66.0665443504695,3426,0,-902,14554,4915,-175,-123,-53,679408,500,2.718014
98.90300137354642,159.28910318343,265.997724289307,605.406875581655,1184.1737360600698,16.815479551209098,-74.53184286557371,-22.214420278440198,3426,0,-902,14554,4915,-175,-123,-53,679409,500,2.718132
121.51172506043801,38.943697958951795,-65.2493709701812,-63.6287410010991,-250.969826248154,-1347.2133524596002,-111.928699829616,44.638597173267,3426,0,-902,14554,4915,-175,-123,-53,679410,500,2.718242
3.7151224293047593,-131.575189254479,-307.888916823547,-457.983058627229,-612.82317190434,-674.863137435634,-16.6859050484491,40.0990287379827,3426,0,-902,14554,4915,-175,-123,-53,679411,500,2.7194540000000003
-117.579333975824,-190.647413749597,-348.737087528571,-697.3390927989391,-1234.47022445282,-626.011585237342,106.186811089865,-1.1540358582278702,3426,0,-902,14554,4915,-175,-123,-53,679412,500,2.719587
-6.80533673139871,-151.587339806254,-147.581125925411,-210.23144134477502,-372.592601801764,-535.014433107688,22.8092147627613,17.7328826463781,3426,0,-902,14554,4915,-175,-123,-53,679413,500,2.7197120000000004
-169.700879387674,-539.32624809409,-471.641917933826,-14.4036395182775,577.911289238982,191.858717224386,-118.159102057922,-48.08518483373339,3426,0,-902,14554,4915,-175,-123,-53,679414,500,2.719838
-148.699984177627,-334.897930788458,-279.858058147947,-178.76939657161702,-136.077281378559,259.737209018553,-21.8445273577818,-37.5547240880551,3426,0,-902,14554,4915,-175,-123,-53,679415,500,2.7199630000000004
61.850028674263704,115.427229956375,370.64009134972,505.59626077380403,40.3086008789251,380.42015521432,107.055518278794,85.1390370266745,3426,0,-609,14341,5073,1316,313,148,679416,500,2.779369
263.805825620715,296.781516361865,298.496817884152,547.385717707133,85.30320937163201,130.901239628554,-81.669634170481,93.010203889804,3426,0,-609,14341,5073,1316,313,148,679417,500,2.779383
150.199206277932,159.848122005234,-23.1813159935409,67.90878983706351,892.929729111696,701.352578876656,-248.159890283074,-14.495140379760402,3426,0,-609,14341,5073,1316,313,148,679418,500,2.7793930000000002
-76.27542819382509,61.387069144751905,22.869658149545998,20.7339757125883,705.633155900578,663.4362071493521,-324.117890560941,-210.09457319357898,3426,0,-609,14341,5073,1316,313,148,679419,500,2.779404
1.1862280721543401,49.6153524057008,-184.06689642719,-593.281666601746,-1401.2574782394502,-867.633357419167,-40.372217994183295,-59.406939406297205,3426,0,-609,14341,5073,1316,313,148,679420,500,2.779415
-127.031223391969,-358.516073208186,-543.436461824342,-207.847526518162,-462.78145965214895,-1157.2412304268198,29.1574608553783,-15.9358414240414,3426,0,-609,14341,5073,1316,313,148,679421,500,2.7794280000000002
-188.05527963547502,-413.72556190192705,-395.46134552673897,178.744011332892,-208.773040941247,-675.021256272332,-76.0878775755991,-34.6192470480455,3426,0,-609,14341,5073,1316,313,148,679422,500,2.77944
156.144835360901,79.3248270365875,154.142387523665,319.020503300213,-16.5594748942822,-177.928006667644,-150.203557176457,96.9877088079229,3426,0,-609,14341,5073,1316,313,148,679423,500,2.779453
323.128661039926,283.991033509024,60.8790991115384,-211.258514874673,299.46018890556303,637.9196431902819,-42.525977510085795,171.297583360923,3426,0,-609,14341,5073,1316,313,148,679424,500,2.779466
319.077677476162,355.90950009622594,121.815004981356,-6.491190486791309,-171.550362189155,374.283106807037,-24.634807133115803,126.416961625335,3426,0,-609,14341,5073,1316,313,148,679425,500,2.7794800000000004
110.353030324011,215.247940951725,453.277909194469,873.454252634547,-411.091880216845,71.1930435736431,-44.728450716182095,-21.2577713846695,3426,0,-434,14354,5175,1811,701,-139,679426,500,2.779494
-290.543700061186,-492.088377669337,-417.874233343173,-584.9769627954811,-1064.99935517201,-48.2468003949616,124.24237948795799,21.7242589301895,3426,0,-434,14354,5175,1811,701,-139,679427,500,2.779509
-450.90483539502,-778.167592541431,-593.4399997434809,-512.690757171426,-241.94216501584702,-289.41774632723497,-23.9193133358494,-1.41856956097763,3426,0,-434,14354,5175,1811,701,-139,679428,500,2.779525
-752.3451833565781,-1084.49368200661,-721.077720985282,-303.156402417953,314.459782595077,-543.465577756753,-287.491911431309,-313.45250613510103,3426,0,-434,14354,5175,1811,701,-139,679429,500,2.779541
-810.4988277622031,-1150.44026368915,-1024.97381954419,-810.730357629451,-559.143529064371,-927.481584617984,-193.98810669325803,-330.409860282671,3426,0,-434,14354,5175,1811,701,-139,679430,500,2.779558
-362.07760604730004,-811.06344641035,-1202.8039128336802,-1138.02841273608,-693.3994762704531,-667.686822266201,-109.594320853008,-121.562085943297,3426,0,-434,14354,5175,1811,701,-139,679431,500,2.779577
-229.290824381227,-629.923561329255,-1235.2666426202,-1069.6585459569199,-667.945996944938,-528.372197907302,-33.2063542274409,-79.2857331057312,3426,0,-434,14354,5175,1811,701,-139,679432,500,2.779595
-233.302759345243,-433.133573397761,-961.2016677113721,-389.95279733493203,-235.348196911451,-341.089267254225,-100.87046867271401,-136.908837397234,3426,0,-434,14354,5175,1811,701,-139,679433,500,2.7796130000000003
-307.81142692611303,-320.271266735741,-474.87851597310504,-227.517891792697,-89.3735665201384,69.44869389745871,-140.85449861420798,-143.125923006446,3426,0,-434,14354,5175,1811,701,-139,679434,500,2.779633
21.089675890107202,-29.9314697001828,-262.921347837779,-413.919970553339,-119.123934411909,181.702051736298,-148.533808064298,2.78342511015944,3426,0,-434,14354,5175,1811,701,-139,679435,500,2.7796540000000003
242.53307879742403,214.05269896949198,25.898953481228105,-101.104914185649,45.282413033390206,274.659047745168,-80.5866751527647,147.864319883636,3426,0,-498,14660,5158,1223,724,-246,679436,500,2.779675
134.259094255132,174.74518752063202,223.66182872653,6.07723425113363,188.75272694145698,261.107332051848,-86.0283709982177,103.309622008586,3426,0,-498,14660,5158,1223,724,-246,679437,500,2.7796950000000002
-312.52927851188,-354.98897623282403,-33.2082560519921,-166.328285916301,10.4377015559003,5.24051191145554,-51.6488856711658,-6.279992058291099,3426,0,-498,14660,5158,1223,724,-246,679438,500,2.7797150000000004
-921.669096361526,-1100.69315213792,-460.774888222455,-260.055847219948,-411.106297498365,-123.21300878166201,-68.3777593206032,-274.493974811165,3426,0,-498,14660,5158,1223,724,-246,679439,500,2.779739
-889.1557976462061,-1016.2074956782199,-599.766376382322,-69.3850630179804,-68.1478428438422,-134.783022083924,-61.045132431783706,-375.379643245367,3426,0,-498,14660,5158,1223,724,-246,679440,500,2.779763
-475.415064823464,-388.164052524487,-94.04479040682779,334.55032252302004,522.942035154701,-255.515354047995,-45.85170895955529,-247.422844276414,3426,0,-498,14660,5158,1223,724,-246,679441,500,2.779786
-478.233362245519,-335.377403279766,310.959225833416,525.7353361856369,302.689230063988,-176.974467820488,61.5721845342196,-165.77282317331998,3426,0,-498,14660,5158,1223,724,-246,679442,500,2.779809
-459.13528516324004,-740.360075589269,-21.497584727010697,314.032488658908,199.45585058844898,176.854022277286,116.971111390565,-11.5987050088588,3426,0,-498,14660,5158,1223,724,-246,679443,500,2.779833
-192.814865236636,-1035.91299011081,-805.9314316711391,-15.282270603231199,166.072299778141,448.744815965591,147.823726442351,175.431688548764,3426,0,-498,14660,5158,1223,724,-246,679444,500,2.77986
730.034885910572,879.376035944559,182.36811203463,353.150897894404,160.92401742481198,387.29891511629097,2.39216857397696,268.694939046167,3426,0,-498,14660,5158,1223,724,-246,679445,500,2.7798860000000003
1085.82743993733,1662.6856664479699,1004.28811591654,668.275714976102,465.882551784685,403.12360902311,-66.6923883191193,301.15821622801,3426,0,-652,15047,5110,354,419,-28,679446,500,2.7799120000000004
621.268624354503,799.448110813624,452.484831042704,457.722294065316,-40.901185334078,-9.56977480021305,-79.2618212336092,190.10481845936698,3426,0,-652,15047,5110,354,419,-28,679447,500,2.779938
490.423036774242,602.831695501227,299.090651424835,402.817197231867,-691.410379342095,-686.414382116986,-102.602388759318,187.755376134766,3426,0,-652,15047,5110,354,419,-28,679448,500,2.826258
178.342870411521,329.147239075624,80.02555063099129,-1.21674797291053,-607.340472718934,-749.588258865871,-268.746922330523,-41.1462444675853,3426,0,-652,15047,5110,354,419,-28,679449,500,2.8262750000000003
95.73331532641899,109.54865350108601,-142.269520714763,-392.255169953103,323.36898706888303,-275.320832677069,-233.06312642077702,-44.588600814226105,3426,0,-652,15047,5110,354,419,-28,679450,500,2.826286
109.551260960812,59.6374538260279,-277.314594838303,-942.363119744987,-362.45701784032303,-438.98780759668404,-156.078456292336,-5.2551303082145795,3426,0,-652,15047,5110,354,419,-28,679451,500,2.826299
234.491935917351,203.13397502130798,-48.9387244103709,-615.0427062352829,-832.011355281691,-608.543685913202,-39.305436565948206,113.087059223792,3426,0,-652,15047,5110,354,419,-28,679452,500,2.826311
304.200874943141,377.624194667209,354.467732066405,221.98114291095402,146.256512563006,-189.64800091611698,70.0484064561315,168.334706251509,3426,0,-652,15047,5110,354,419,-28,679453,500,2.826324
210.052976747887,250.80296596488898,176.44977075257302,-50.5397092308558,96.69350680356729,297.561252932239,136.296565946599,122.517452024389,3426,0,-652,15047,5110,354,419,-28,679454,500,2.8263380000000002
151.853660069581,187.16788846848098,133.809945620596,-86.12501018436159,70.601806161867,463.657078359742,107.30618629680201,87.205011872109,3426,0,-652,15047,5110,354,419,-28,679455,500,2.826804
185.799826502771,162.08249038131902,9.21640836715233,-344.85546216918704,-148.947360220365,208.299608124071,73.704892227368,121.89236565295099,3426,0,-738,15301,5107,-235,28,140,679456,500,2.82682
168.633729632304,169.10387651645598,110.765071007423,-136.26189169639798,48.6432070123556,82.32860285067,-2.2107763504027402,104.46696123667101,3426,0,-738,15301,5107,-235,28,140,679457,500,2.826835
73.1694280952215,113.42493095400299,242.84114713838798,294.318803707691,98.67743262913429,-226.90933642082402,-91.09078451455571,27.6302870283835,3426,0,-738,15301,5107,-235,28,140,679458,500,2.8268500000000003
131.93132453542802,294.948458982282,701.194625465781,1089.18455200078,-292.14663351973303,-915.862728207372,-181.838539863471,-5.51685819658451,3426,0,-738,15301,5107,-235,28,140,679459,500,2.8268660000000003
-49.5386165699747,-218.447575223283,-471.97215665411204,-1120.07611492911,-1530.71300344108,-1354.69631366711,29.65920342342,41.24985112680589,3426,0,-738,15301,5107,-235,28,140,679460,500,2.826884
-173.090657644905,-433.26243327348504,-800.6919774677369,-1547.74179510085,-1964.71777460212,-1812.84033187886,7.96549945225706,-10.9499540126417,3426,0,-738,15301,5107,-235,28,140,679461,500,2.8269
-36.7189791135024,-202.166882629157,-16.2545421549585,-16.3009548912232,-810.1878674578039,-2468.9099940341002,-169.475775717932,7.06477203674149,3426,0,-738,15301,5107,-235,28,140,679462,500,2.8269170000000003
-311.472312854137,-667.584184524021,-31.6406788569875,906.7246156907061,1579.0953305377,-284.51301667827596,-124.08287238888398,-75.51411805429959,3426,0,-738,15301,5107,-235,28,140,679463,500,2.826935
-840.1626417812661,-1472.98695128155,-799.099368427182,113.913162606652,1788.0126782271302,2727.2385555291,-67.3270043517114,-318.045712130028,3426,0,-738,15301,5107,-235,28,140,679464,500,2.826953
-769.9450346753,-830.3233347970531,-203.46038532780898,273.069204246451,1316.5159930653801,2619.66569363215,-12.270998590334802,-349.843164155609,3426,0,-738,15301,5107,-235,28,140,679465,500,2.829991
-23.832870114973,556.613319471362,770.321900867857,1169.57425201655,1847.5831451063,1827.6484758047197,-67.21413193159971,-179.499315451481,3426,0,-696,15330,5131,-530,-147,134,679466,500,2.8300940000000003
638.431940252922,941.4057514281011,550.349216742325,510.556298708136,365.572201141767,284.2404784846,94.1744345479528,264.98581683542596,3426,0,-696,15330,5131,-530,-147,134,679467,500,2.830182
440.760895131563,510.45906568947197,212.858622026746,28.684883833077002,-386.423655254126,-547.263704122626,91.56327064341171,265.667791396147,3426,0,-696,15330,5131,-530,-147,134,679468,500,2.830277
295.228353590675,374.05410791083705,299.92887623969,-11.9092600220465,-396.6225508239,-695.596506556263,0.537703431735281,164.968706447398,3426,0,-696,15330,5131,-530,-147,134,679469,500,2.830375
194.232704660593,226.41917494649502,284.537925089826,-7.27742150894483,-487.171972795739,-639.325424381415,-24.7576653427677,113.220483459998,3426,0,-696,15330,5131,-530,-147,134,679470,500,2.8304720000000003
50.7658153391094,-63.4742121472955,61.63503810158001,11.209308833902499,-370.86603693844495,-457.526186265401,-36.8174770546029,94.9076686130138,3426,0,-696,15330,5131,-530,-147,134,679471,500,2.8305830000000003
102.86904830971599,-19.8212063200772,-55.137081599445104,-263.69041208937404,-375.24751307012,-278.973021952203,-15.9316163081676,143.400818323717,3426,0,-696,15330,5131,-530,-147,134,679472,500,2.87476
269.592157902342,343.273748020642,137.61253827810302,-309.566482879542,-231.491356819082,-66.8637876587454,39.4751702696085,190.289021910634,3426,0,-696,15330,5131,-530,-147,134,679473,500,2.874791
503.78492143919004,759.458253034041,478.00542402593396,82.3908465018321,106.246696570917,31.299703492084497,16.6762881039758,250.49667634477402,3426,0,-696,15330,5131,-530,-147,134,679474,500,2.874816
362.37850750683,574.167956128716,531.9048465590461,515.162577812414,684.22455271738,387.60389713465696,22.9801022565225,207.586773898918,3426,0,-696,15330,5131,-530,-147,134,679475,500,2.874842
19.005748091382,125.83874978951599,125.99953382671801,202.16874245341802,283.074017775274,209.776652952831,35.166771606775,74.77366737707051,3426,0,-574,15212,5041,-482,-9,137,679476,500,2.8748690000000003
-242.56756818012198,-265.221930166939,-315.585444987868,-223.192726765032,-852.425356876192,-537.242256319965,-28.324840935296397,-44.45887044665871,3426,0,-574,15212,5041,-482,-9,137,679477,500,2.874899
-221.622181723942,-306.558748624288,-442.588513905299,-543.858972140879,-197.886770285986,-354.70239230501505,-67.1725593808806,-35.9949314923724,3426,0,-574,15212,5041,-482,-9,137,679478,500,2.874928
-388.747709779855,-478.54184216598503,-700.156482340302,-1050.30499634211,-1005.36499054485,-719.001099741319,-106.526265291846,-162.784770592581,3426,0,-574,15212,5041,-482,-9,137,679479,500,2.8749580000000003
-382.84659212685096,-395.94691186794097,-493.382244952838,-692.782366613741,-888.4735445978,-1166.17197352066,-125.50942419946699,-175.691564434208,3426,0,-574,15212,5041,-482,-9,137,679480,500,2.8749890000000002
-268.685802378284,-300.455430997419,-312.02697624312697,-240.32260992439097,-195.640373797272,-837.55953800946,-178.037974281702,-180.480317561072,3426,0,-574,15212,5041,-482,-9,137,679481,500,2.8750210000000003
-103.27153877101999,-189.25095688574902,-267.079946769751,-249.633205553546,-120.617976481444,-295.387462960905,-163.322571542289,-78.8713371052872,3426,0,-574,15212,5041,-482,-9,137,679482,500,2.8750560000000003
-170.468024875532,-225.508463231497,-361.808209044626,-573.8353091334279,-543.400853429397,-240.94754866894797,-95.1222256500041,-71.94028783717658,3426,0,-574,15212,5041,-482,-9,137,679483,500,2.8750910000000003
-41.050668187585,18.9321057377383,-82.684472154011,-375.230763058877,-346.74757243134104,131.81453801260798,-3.9199112280621202,-9.44317830284126,3426,0,-574,15212,5041,-482,-9,137,679484,500,2.8751330000000004
-99.07839659170709,-101.40424484678101,-192.616696260637,-410.634517972183,-342.34199907211604,366.75446416973097,140.799683797173,19.480221506440998,3426,0,-574,15212,5041,-482,-9,137,679485,500,2.8751710000000004
-191.158717630344,-297.746087659034,-408.493147463887,-361.111613302026,-149.166217950726,397.015618443547,201.225580806087,13.2605469307164,3426,0,-517,15108,4912,-297,333,213,679486,500,2.87521
-250.281775280047,-567.149084002478,-796.557090568589,-558.642052263924,-357.882934499881,104.909506527358,166.48309878906,45.8741272285115,3426,0,-517,15108,4912,-297,333,213,679487,500,2.8752500000000003
-181.45717174850898,-409.829657503171,-433.440252757631,-347.241620808665,-465.5983111344099,-211.37784695765,131.17419710278,134.722173045506,3426,0,-517,15108,4912,-297,333,213,679488,500,2.8752910000000003
-88.641261953715,-157.071594750858,-64.9034870869946,-177.223602963582,-774.674531743047,-689.6627952258569,-26.923458048782802,20.724919875385197,3426,0,-517,15108,4912,-297,333,213,679489,500,2.875334
-148.030377936608,162.098471277975,408.34569292433997,266.939678102848,-703.230830763641,-796.249317141715,-15.102639840683,-82.90585209243,3426,0,-517,15108,4912,-297,333,213,679490,500,2.875378
63.6269424929051,366.97060089977504,410.595741000958,283.203684483276,-135.77857748075598,-367.8318148403201,5.5148710758076,-41.1460380312055,3426,0,-517,15108,4912,-297,333,213,679491,500,2.875424
-135.791093750886,-318.14550130337,-514.363696297747,-748.155100372212,-601.9471485808319,-528.078950749361,-185.79325976799,-96.2994881031336,3426,0,-517,15108,4912,-297,333,213,679492,500,2.875471
-130.983010366937,-198.702742142137,-190.53810452169301,-176.61105843322,-80.4493484865525,-266.943301021704,-327.005257710931,-148.772920975112,3426,0,-517,15108,4912,-297,333,213,679493,500,2.8755200000000003
-249.45436944632098,-53.912618260015705,305.144176512607,530.9020344711901,211.940067841875,-49.8017924184678,-166.32961951074,-128.041759763029,3426,0,-517,15108,4912,-297,333,213,679494,500,2.87557
-294.886760246533,-186.19621245493198,50.30852921318729,74.8258225931204,345.64544188172994,248.10473228769797,-28.5226170435781,-72.78334257740059,3426,0,-517,15108,4912,-297,333,213,679495,500,2.876215
-204.590736349724,-243.283342765644,27.2148955024313,214.72736515954603,607.848328915949,447.875422264915,-142.859467762522,-59.949471160303794,3426,0,-604,15036,4831,-226,511,215,679496,500,2.906759
-269.44496026932,-319.522960125119,126.639375739149,576.466330473573,752.4722030303669,250.616566888872,-165.331983818032,-104.910799170611,3426,0,-604,15036,4831,-226,511,215,679497,500,2.906793
-30.3861099299684,-64.8742102275137,133.39263445103998,615.666537605051,570.30548527214,-28.657220288994697,-135.842574219976,-14.1570481302915,3426,0,-604,15036,4831,-226,511,215,679498,500,2.9068180000000003
-381.615443785384,-615.3561718038981,-378.679231475806,141.579985489137,-6.113505990942941,-278.604957708973,-40.1350931391935,-63.660537784802706,3426,0,-604,15036,4831,-226,511,215,679499,500,2.906844
-804.9621792039541,-1183.7833263719199,-647.8299627059599,-143.742495678598,-491.859350369807,-587.032730650157,5.68521653092466,-172.168115769862,3426,0,-604,15036,4831,-226,511,215,679500,500,2.9068720000000003
-927.8480095077251,-1508.55400557991,-824.157005989342,-175.07221788997398,-431.915759302909,-547.7496684511419,-3.72293822647771,-194.845481876284,3426,0,-604,15036,4831,-226,511,215,679501,500,2.9069010000000004
-717.251604565594,-1177.31226272264,-873.037743621622,-246.747429071809,-481.022132955259,-534.773080330808,-86.550684217189,-199.34457983286097,3426,0,-604,15036,4831,-226,511,215,679502,500,2.9069290000000003
119.784443278884,231.035131324665,-351.857198170852,-495.39847643589,-76.3480999951717,-195.988781796885,-108.715919492708,-13.974133814103,3426,0,-604,15036,4831,-226,511,215,679503,500,2.906959
334.215323808923,476.990551503026,-33.9330235832604,-335.476495602808,295.450533854251,94.8476903538685,-86.87525776866819,116.41343390836799,3426,0,-604,15036,4831,-226,511,215,679504,500,2.90699
293.543762145709,447.569329632446,-9.15786656993441,-290.825507019181,7.7158221453137195,65.0434632980032,-56.3602136218105,163.680982460966,3426,0,-604,15036,4831,-226,511,215,679505,500,2.907023
6.919506272155559,110.436609248631,26.2394709690707,180.59019761227,434.102578328457,108.15235284902201,-139.51110075973,41.41497312206771,3426,0,-790,14984,4817,-171,551,239,679506,500,2.9070690000000003
120.379058034829,379.719856066396,392.11125439521896,631.205666292866,709.0669575579519,-190.136310749105,-134.168468294782,31.973758846172103,3426,0,-790,14984,4817,-171,551,239,679507,500,2.9071100000000003
386.447697390977,640.656712301308,412.543737880187,472.96517282354796,578.102568545146,225.836051543476,50.98078656668079,210.467237238889,3426,0,-790,14984,4817,-171,551,239,679508,500,2.907149
187.08653711012403,320.943312214455,90.8561591116013,59.3019173074863,-93.8345086783811,132.775600064662,62.891569771338304,151.205595041742,3426,0,-790,14984,4817,-171,551,239,679509,500,2.907187
-137.985645657434,123.46565323777,164.71822824142902,138.731512896891,102.213659868954,-41.6088789915666,55.769966539170106,25.103322797920605,3426,0,-790,14984,4817,-171,551,239,679510,500,2.938774
-349.680879685096,-138.131783770979,92.56450177228541,-62.0789416351472,155.691377738171,47.5412287280196,71.59127311548221,-35.825429282849704,3426,0,-790,14984,4817,-171,551,239,679511,500,2.9388080000000003
-198.982628868456,-342.794719483005,-102.91009798564501,-615.146696636686,-658.051588547125,-407.00928823615,21.6249428819865,69.9637204078026,3426,0,-790,14984,4817,-171,551,239,679512,500,2.9388330000000003
-200.214153213456,-448.49502268328797,-238.302323567099,-718.0728642725729,-892.190240282274,-375.888037137105,-38.64947401679821,42.2607937228167,3426,0,-790,14984,4817,-171,551,239,679513,500,2.93886
31.1141856619797,141.770885643433,-167.2827121109,-432.12448764237297,-284.648147371277,260.05080818920396,-19.6637221700512,18.877143493155,3426,0,-790,14984,4817,-171,551,239,679514,500,2.9388870000000002
385.758293524268,698.822691335692,137.380703616305,-203.39233041094798,89.7378279375553,517.370595915243,-3.8955284678377198,115.034317153157,3426,0,-790,14984,4817,-171,551,239,679515,500,2.938917
31.392421639437103,261.106913615251,126.197814434883,-147.439174707804,85.796414993034,602.519854243204,68.3194455482299,55.9555105207255,3426,0,-927,14944,4731,-205,520,-7,679516,500,2.938946
-92.96901734280979,-22.0910477851285,35.6499218927929,-107.08516211825199,-10.5175482151681,510.689054122136,80.9989008132834,89.036932172603,3426,0,-927,14944,4731,-205,520,-7,679517,500,2.9389760000000003
-61.7431317607989,-154.677166531328,-136.249564209371,-122.88067389003099,48.4023264495481,-48.06951190985271,44.8232718314976,116.73301434039601,3426,0,-927,14944,4731,-205,520,-7,679518,500,2.939006
-256.48517272784403,-537.019313460914,-557.414862985956,-511.128968052682,-277.001542769605,-301.724628981086,-102.20194402150801,-12.9332591268467,3426,0,-927,14944,4731,-205,520,-7,679519,500,2.939038
-222.211095046659,-356.080361219589,-499.281879463117,-524.835216938052,-695.7180934978529,-391.213410833268,-151.987482293567,-80.3612524023047,3426,0,-927,14944,4731,-205,520,-7,679520,500,2.939073
-449.711579820781,-365.205020126537,-482.59886021039,-483.69366898792197,-178.038227016106,-105.920723337214,-243.876434747013,-289.04978194029496,3426,0,-927,14944,4731,-205,520,-7,679521,500,2.939108
-189.40525094428398,-41.2964006136172,-363.74937558092597,-558.321481746942,-503.55043875076797,-596.3274247362281,-152.752757175826,-153.272185531096,3426,0,-927,14944,4731,-205,520,-7,679522,500,2.939143
132.251356891065,174.22556548658798,-187.73876150359902,-505.789673985011,-1050.55836116776,-1322.06696393085,20.713664085837102,76.2154999708291,3426,0,-927,14944,4731,-205,520,-7,679523,500,2.939185
145.799623275612,233.01862246159,52.6622288577491,-51.426788025448296,-387.267384561303,-834.271236879169,6.18250011466444,99.1164060215233,3426,0,-927,14944,4731,-205,520,-7,679524,500,2.9392240000000003
185.010384565452,352.680609613191,260.246679272735,257.145885826554,143.537438576401,-165.709987068316,1.77001902245684,108.808739414904,3426,0,-927,14944,4731,-205,520,-7,679525,500,2.939264
255.52411138051002,477.790666460176,480.134835621226,686.073354731256,504.733642839041,178.497570989304,66.97481034568051,174.02555953373698,3426,0,-778,14936,4545,-116,1009,-279,679526,500,2.9393040000000004
240.67881668143698,376.732967048534,306.715942737879,360.332841792202,-21.047205723793002,64.25767274887771,99.5628271521418,229.477419558214,3426,0,-778,14936,4545,-116,1009,-279,679527,500,2.939346
169.365927235194,250.091329060611,242.775239832583,435.150748429965,-112.950469094387,-237.369931666064,40.315326762676705,202.740608723834,3426,0,-778,14936,4545,-116,1009,-279,679528,500,2.969417
-175.33703698540901,-72.7341514467262,34.5365359315183,515.97349434733,375.65245160754404,-236.103920730064,-38.0688084348221,-60.181885887403,3426,0,-778,14936,4545,-116,1009,-279,679529,500,2.969452
-131.148721920006,64.6041519696591,226.395437414991,695.1413253330389,836.276628812368,-92.7387387711788,-39.9478855105117,-55.48217897664289,3426,0,-778,14936,4545,-116,1009,-279,679530,500,2.969478
-137.194391581317,13.4005635891808,44.18844806076961,123.753519684164,397.737897954037,-159.846956519992,-134.220333765727,-84.62635802139991,3426,0,-778,14936,4545,-116,1009,-279,679531,500,2.969504
-63.659479236608604,28.4231253846083,-28.4203076804988,-188.092195049278,-179.43325241655103,-59.1614925448084,-80.2358091046335,-8.06616398540791,3426,0,-778,14936,4545,-116,1009,-279,679532,500,2.969532
-194.75834783804,-120.71116315037901,-297.876732615987,-710.6854522065261,-872.6142895614901,-283.692337138811,46.61493872938439,-21.898888968280502,3426,0,-778,14936,4545,-116,1009,-279,679533,500,2.96956
-275.51886828057496,-188.478650695644,-294.651304858737,-625.508275603061,-496.777488698513,78.914662287687,84.4300952245831,-45.4954769628821,3426,0,-778,14936,4545,-116,1009,-279,679534,500,2.969589
-339.360115896707,-274.273654662771,-375.92302973812895,-477.770474990131,-525.1005869663791,-19.1391493336996,57.176202147908,-115.501685159979,3426,0,-778,14936,4545,-116,1009,-279,679535,500,2.9696190000000002
-212.58527208989798,-170.174712274573,-376.665397037403,-477.939557490579,-670.311451680347,-305.773270621663,1.44176569214324,-66.3733294742415,3426,0,-574,14937,4561,601,1105,-432,679536,500,2.9696510000000003
-262.284575452766,-160.781213288545,-288.94029765192,-425.419225281657,-581.146021591441,-287.71083640994,15.9655141336261,14.937751064426301,3426,0,-574,14937,4561,601,1105,-432,679537,500,2.9696860000000003
-418.67755089793405,-243.91711493302103,-27.400013132020803,155.134952848166,-262.522137561609,-280.793884381535,49.188445498934,-42.8978858352639,3426,0,-574,14937,4561,601,1105,-432,679538,500,2.9697210000000003
-331.620746829489,-251.474289709586,147.40058952535,865.570172271924,-218.165861685033,-677.4132834667109,-130.667138854216,-114.915792646934,3426,0,-574,14937,4561,601,1105,-432,679539,500,2.969757
-545.749459236977,-728.969216221012,-615.102718963288,292.123166460457,-251.867149988073,-613.917396712932,-135.35973918501998,-116.467604515841,3426,0,-574,14937,4561,601,1105,-432,679540,500,2.9697980000000004
-719.420400380972,-687.699590607896,-531.325520566432,242.573871397588,-139.056998212473,-462.74693153728697,-194.64447411068198,-247.182484730496,3426,0,-574,14937,4561,601,1105,-432,679541,500,2.969838
-90.9285900444956,75.5351920106914,-82.87504147051371,-116.415016540734,36.9433637366164,-266.74002716934797,-131.944189285277,-24.4691400293959,3426,0,-574,14937,4561,601,1105,-432,679542,500,2.9698770000000003
97.43866018371772,69.019964942825,-377.381221580668,-1197.34487716056,-342.772263086314,-211.30109090765498,-71.0154645251459,145.776645363076,3426,0,-574,14937,4561,601,1105,-432,679543,500,2.9699180000000003
266.556103687006,321.951170061133,-63.9971167448675,-992.734062978328,-506.064662462974,-111.82759409036998,-86.3695382025326,216.503576690215,3426,0,-574,14937,4561,601,1105,-432,679544,500,2.9992520000000003
266.60180570287,408.736793964054,232.55731127993198,-212.279111467389,-104.837646898872,114.601352344267,-107.49096213828301,202.86410116741902,3426,0,-574,14937,4561,601,1105,-432,679545,500,2.999286
149.37441675455202,327.47324374248296,265.037770601222,72.4960525080096,171.13972900845698,176.21755411929902,-120.394438126823,116.843515905784,3426,0,-729,14823,4635,-50,1656,-382,679546,500,2.999311
-134.33803851951998,64.3623357381439,62.57809976139111,10.869683461467499,131.627701828984,-9.391687101684509,-139.094532151415,-68.47581753833221,3426,0,-729,14823,4635,-50,1656,-382,679547,500,2.999339
-311.15265887707903,-176.584234996932,-139.34323772322398,-139.424697856273,-29.6268624319346,-163.864062018227,-48.24355500086679,-169.991034206701,3426,0,-729,14823,4635,-50,1656,-382,679548,500,2.999366
-640.771461700409,-543.7019957096779,-431.15595416375396,-461.742358252639,-415.44069730193604,-539.993897134555,-152.30574078508698,-333.831639436539,3426,0,-729,14823,4635,-50,1656,-382,679549,500,2.999394
-646.262601949158,-570.327681156225,-468.883586980635,-538.536511175887,-624.502151636843,-849.7932343896249,-192.45642535638802,-238.23284863936698,3426,0,-729,14823,4635,-50,1656,-382,679550,500,2.9994240000000003
-1035.24587964354,-1039.8093353760198,-749.589527049451,-654.100395575457,-677.891455711215,-712.4796721356689,-154.585954990063,-385.298878439236,3426,0,-729,14823,4635,-50,1656,-382,679551,500,2.999454
-1140.0882831043302,-956.8269374979429,-453.369049423025,-360.75950227654505,-390.726221013028,-223.07923028478402,-8.863995287276339,-473.86971948167803,3426,0,-729,14823,4635,-50,1656,-382,679552,500,2.999511
-655.278907804663,-571.750656016986,-396.347803080687,-336.397902138968,-293.956027203938,52.5254438146949,-16.0108726665494,-299.960641087615,3426,0,-729,14823,4635,-50,1656,-382,679553,500,2.999579
-40.354799150518396,257.71260932984296,191.6311808686,166.65837880125,105.70361129159599,403.19231035205297,2.76953031099401,29.7941175786546,3426,0,-729,14823,4635,-50,1656,-382,679554,500,2.999641
565.8980816792459,591.859387551667,312.155540650128,365.302158722596,329.44386309705396,436.434214387438,5.41535777488025,449.835684158374,3426,0,-729,14823,4635,-50,1656,-382,679555,500,2.9997030000000002
483.84177990604104,454.74942817771796,283.09437123884,450.151395097637,32.635349478165196,171.119993396685,71.62769404117721,526.740462223534,3426,0,-1165,14677,4864,-886,970,-247,679556,500,2.999787
54.9800030804181,220.952951696934,465.059217582457,926.453169200249,-146.187129528058,-21.325503777479803,140.985357266269,367.14633365918405,3426,0,-1165,14677,4864,-886,970,-247,679557,500,2.999857
-585.165068764531,-360.725020309095,-300.31923815340303,-497.30978508098605,31.002905993082102,255.69381276099,299.902274447435,78.3562759639462,3426,0,-1165,14677,4864,-886,970,-247,679558,500,3.0326880000000003
-704.5200836070869,-297.139836200397,-84.24413817632009,-171.173761063983,-105.063578443252,-241.90338369133,-26.137792577210302,-218.75545140286,3426,0,-1165,14677,4864,-886,970,-247,679559,500,3.0327070000000003
-892.9129601567979,-443.02375411696295,26.7800919987494,57.484098498011,-24.7775702144427,-243.360267279786,-12.219060360512199,-204.08697066572498,3426,0,-1165,14677,4864,-886,970,-247,679560,500,3.032721
-565.151362340461,-517.5062789990329,-282.944109572796,-186.757726706535,-305.229340723163,-457.45111391262606,-69.0296493058559,63.811640615691395,3426,0,-1165,14677,4864,-886,970,-247,679561,500,3.0327360000000003
-24.823933213920103,61.8529291858431,40.2519658427918,172.28057694190602,158.174074347247,-191.85227071133,-118.171865437995,119.67555874981899,3426,0,-1165,14677,4864,-886,970,-247,679562,500,3.032751
691.60627077907,628.01229661447,235.192161093932,327.08551198768,387.22273887222394,75.40607868705409,-60.36491416976789,356.692732103635,3426,0,-1165,14677,4864,-886,970,-247,679563,500,3.032766
496.74106494122003,-20.3248027565423,-517.363961526775,-353.80869056517304,0.254437843512278,2.44400549214333,-114.57706107938401,291.618452624069,3426,0,-1165,14677,4864,-886,970,-247,679564,500,3.032782
244.665036907565,-64.317016734858,-326.380495055928,-490.556880193617,-391.81894348881895,70.51119943347291,8.77911663352279,164.739353045821,3426,0,-1165,14677,4864,-886,970,-247,679565,500,3.0328000000000004
50.3833369557979,-41.1763396407478,-55.288251028629,-98.89260879042558,-26.714875666657502,345.41858829255204,125.625768152764,141.79410124325702,3426,0,-1263,14747,4846,-668,723,-174,679566,500,3.032827
518.373345850763,643.511998285539,975.6179521661251,1367.09296694136,924.116174491704,560.235892433207,128.715001015225,415.266214184114,3426,0,-1263,14747,4846,-668,723,-174,679567,500,3.0328570000000004
779.762092182616,763.126905339886,870.678807912278,1185.9677855785699,600.979383088066,226.78190914983898,195.360368245572,582.951096777688,3426,0,-1263,14747,4846,-668,723,-174,679568,500,3.032887
304.471315835457,344.595152594848,362.561231301865,475.403676642774,-109.681744186877,-360.890888829133,-25.0331130451523,60.8466642601416,3426,0,-1263,14747,4846,-668,723,-174,679569,500,3.0329080000000004
-42.6652649889584,132.013180561014,175.79228480497798,290.442382439214,-77.08545602587401,-367.81917001435096,12.719416840234802,-283.815846456913,3426,0,-1263,14747,4846,-668,723,-174,679570,500,3.032928
3.0896042183157997,4.56165710370988,-176.594341628021,-40.2887376849249,-195.942634893232,-451.164965352276,16.2126272261958,21.7719442590605,3426,0,-1263,14747,4846,-668,723,-174,679571,500,3.03295
-119.67014782413,-174.960752070765,-377.499048016383,-776.311631966702,-388.832576156768,-398.302758953767,142.886117617949,307.642813459155,3426,0,-1263,14747,4846,-668,723,-174,679572,500,3.0329740000000003
150.643831442227,53.2140292619588,-159.500390495174,-824.384036069678,-418.311589690187,-145.348311958136,110.960213776154,344.476376823965,3426,0,-1263,14747,4846,-668,723,-174,679573,500,3.0329990000000002
388.75762487371696,410.70557131711405,331.049914816744,80.1851574139146,-341.075211440417,-63.4901348213898,-66.6520612139138,303.324244865915,3426,0,-1263,14747,4846,-668,723,-174,679574,500,3.064385
397.308491511794,572.91742313432,656.461921300972,610.7377111725509,-133.615457692591,150.510303997085,-50.250698352407206,317.330158954719,3426,0,-1263,14747,4846,-668,723,-174,679575,500,3.0644
298.41239111500903,403.157360346755,243.40598483604802,-375.85348773727304,299.820461185125,526.794320364948,-39.020912814827206,322.205003692303,3426,0,-1004,14755,4838,-62,1060,-96,679576,500,3.0644120000000004
270.30182023815,290.157460324466,97.8476872066967,-484.556553442846,-72.1338093777595,454.154113722965,122.12585618771799,407.49978018133,3426,0,-1004,14755,4838,-62,1060,-96,679577,500,3.0644240000000003
391.593626754038,558.168378661736,721.2753851696621,909.667484054953,303.881866941781,180.672713264357,66.60626493365271,388.363810405019,3426,0,-1004,14755,4838,-62,1060,-96,679578,500,3.0644370000000003
313.599889864039,550.524044994498,882.7474804106171,1382.1358933657998,523.1468226590371,-336.843410996138,-74.6785467721638,279.020659632399,3426,0,-1004,14755,4838,-62,1060,-96,679579,500,3.0644500000000003
169.986821310973,173.27995841647498,71.2783935398329,-111.01768701261601,381.904451350973,-494.109993928229,71.0090935301268,286.306588946725,3426,0,-1004,14755,4838,-62,1060,-96,679580,500,3.0644630000000004
242.80969512663398,290.656947727432,290.517423378769,237.010005414893,299.054445212649,-583.8060200090989,91.6500875866623,248.77171795326302,3429,0,-1004,14755,4838,-62,1060,-96,679581,500,3.064477
305.76992725470296,256.501062527066,198.945890392177,46.0467921881936,-157.41502434527501,-432.866180690355,75.261112580949,312.064190333826,3429,0,-1004,14755,4838,-62,1060,-96,679582,500,3.0644910000000003
188.063850525243,103.51209351420401,46.8978123647394,-173.339646988024,-518.740842164116,-138.70731277007098,75.9675343524432,294.060585912317,3429,0,-1004,14755,4838,-62,1060,-96,679583,500,3.0645070000000003
-100.09781773431999,-116.138930256595,-145.984445756301,-461.52935837511905,-235.56153123386298,618.844343743462,211.81164812057997,143.108269380289,3429,0,-1004,14755,4838,-62,1060,-96,679584,500,3.0645230000000003
215.56570635558498,135.012063523987,27.2588415560313,-52.4671973372169,189.17768428722,773.645020419615,125.33938055497102,305.07799006626,3429,0,-1004,14755,4838,-62,1060,-96,679585,500,3.0645390000000003
201.330042856804,172.347219597083,129.769134294125,312.732620449067,449.606004262692,905.613549968461,17.0858818287961,238.438940725639,3429,0,-637,14782,4986,318,1415,-145,679586,500,3.064556
-22.416211675503302,-186.301639956189,-161.53557505062798,233.130015900417,794.2141746671989,1148.19188034069,49.3080426829983,91.1355188756716,3429,0,-637,14782,4986,318,1415,-145,679587,500,3.064573
-425.22305182652804,-866.4132259947951,-743.345083525172,-221.123764997174,587.9273263404029,952.435018906021,136.775676035788,10.2615291556576,3429,0,-637,14782,4986,318,1415,-145,679588,500,3.064592
-393.68463559731003,-640.644816160318,-512.9254074568161,-219.52916442591203,-141.498295188474,39.613062845193795,238.051857116865,-41.7780270756921,3429,0,-637,14782,4986,318,1415,-145,679589,500,3.0646120000000003
-159.800379626628,-177.184029468917,247.28495677805,876.1687892912599,-611.38536344943,-1050.62307944952,252.591799722752,90.6769783030031,3429,0,-637,14782,4986,318,1415,-145,679590,500,3.096753
155.637873666594,370.927002644516,244.732565640123,103.818927374319,-14.0595519365452,-755.8334599337539,181.478080403816,133.030932442634,3429,0,-637,14782,4986,318,1415,-145,679591,500,3.096772
297.200269469264,403.380672810017,144.81531163002398,-342.87872065417497,-334.464081132668,-1014.23716149468,-35.829152298101704,187.769460401614,3429,0,-637,14782,4986,318,1415,-145,679592,500,3.096785
242.20892835041698,355.913539513364,362.151442328934,250.505242124404,-52.6190727215144,-443.571014224784,-22.8533866343205,360.072863923036,3429,0,-637,14782,4986,318,1415,-145,679593,500,3.0968
241.55710628590901,266.294114333927,86.842393796891,-262.61408314134997,-142.97150083858298,-47.956965157762205,21.761117459856898,295.686324410373,3429,0,-637,14782,4986,318,1415,-145,679594,500,3.0968150000000003
112.710677289928,262.251827426255,132.96675897308202,-531.810000385274,-274.921104623732,251.29394857084802,-147.83782038895902,136.692589609534,3429,0,-637,14782,4986,318,1415,-145,679595,500,3.09683
287.567707090784,327.81197084661096,362.35297632438596,114.635702338797,201.96681758324797,539.84178655193,-260.656991046038,187.371950483648,3429,0,-502,14896,5035,589,1582,-296,679596,500,3.096846
-76.39311983840891,134.166517343489,470.604635691969,649.654593742016,337.999027104815,347.766896477668,-183.24527648597697,-13.0129770064959,3429,0,-502,14896,5035,589,1582,-296,679597,500,3.0968630000000004
-716.042321384564,-235.94031949993197,273.39964308228804,589.668978220085,205.001480693143,69.6335416502552,-37.2308372760308,-209.90127576177503,3429,0,-502,14896,5035,589,1582,-296,679598,500,3.0968790000000004
-1895.22980393577,-1055.55812025163,4.1156150160823,735.121052380855,226.693668849999,-162.29817431024298,27.461957424180603,-590.153187334538,3429,0,-502,14896,5035,589,1582,-296,679599,500,3.0968980000000004
-2335.17640840911,-1303.43261789146,41.2868125832174,929.4089666150979,390.21179312327905,-87.24083878891541,43.6459810199449,-951.720978852827,3429,0,-502,14896,5035,589,1582,-296,679600,500,3.0969170000000004
-2151.4272376305303,-1489.52953566785,-232.056636220543,709.82322526729,214.79263420202201,-115.473250321345,-94.4044842714793,-1217.31157958938,3429,0,-502,14896,5035,589,1582,-296,679601,500,3.096937
-1525.6837030936701,-1485.42602394684,-484.090082808048,374.695977364085,234.342430583056,75.2756112741772,-245.63349002902402,-1156.5702332037,3429,0,-502,14896,5035,589,1582,-296,679602,500,3.096957
-1038.86899798291,-1690.00219893525,-508.37052890379005,-55.6355880140036,415.619542409549,592.569499756675,-47.15313994610911,-573.831496799598,3429,0,-502,14896,5035,589,1582,-296,679603,500,3.096978
-1874.8066134128896,-2216.9123940085997,-479.659267936484,-364.32275067272695,811.2532807943061,1488.95382150024,295.924921499973,-856.9441728730451,3429,0,-502,14896,5035,589,1582,-296,679604,500,3.097
-1784.99131065726,-777.48799011705,645.808162271278,754.8976295157629,1432.46372416345,1998.4497446178,310.745787332067,-1082.82546881109,3429,0,-502,14896,5035,589,1582,-296,679605,500,3.0970220000000004
-679.62513337718,61.6563159979414,1266.28495374636,1490.43814936257,1842.1424147386604,1856.56343359745,175.313693467528,-226.63505792093898,3429,0,-720,14973,5006,229,1248,-559,679606,500,3.142894
298.677011426538,1046.33728175308,1639.47080757294,1770.54281577788,1907.7653576195603,1490.7957322688299,102.184497086913,460.866629701806,3429,0,-720,14973,5006,229,1248,-559,679607,500,3.142939
1650.3241289318,2750.07793582149,1869.8013294953896,1148.73348588185,886.3292841366199,495.52706113480997,0.152128057146911,557.429516071687,3429,0,-720,14973,5006,229,1248,-559,679608,500,3.1429720000000003
1416.8957393979401,1926.20656719117,634.387645080104,-359.72751624882204,-634.165380501188,-686.081565189292,-395.748729567218,37.6357260420918,3429,0,-720,14973,5006,229,1248,-559,679609,500,3.1430100000000003
419.154647652816,710.080748418113,-100.67511305504,-893.353087550291,-1338.6629780666801,-1314.2970699281402,-428.94145996705595,-313.68780299520597,3429,0,-720,14973,5006,229,1248,-559,679610,500,3.143046
239.784960663266,65.6117549794726,-585.07424042793,-1218.54929345768,-1572.2183947251801,-1480.4739173498199,-268.916078992537,55.8793088064995,3429,0,-720,14973,5006,229,1248,-559,679611,500,3.143084
708.580885432923,-147.475881373161,-771.2399165272951,-1192.81924860334,-1498.70916971925,-1353.34983583039,-128.765949963708,840.190068842028,3429,0,-720,14973,5006,229,1248,-559,679612,500,3.1431240000000003
987.6517080723129,143.945140298572,-41.7977002470288,-189.51738059992198,-969.929575733579,-1057.82954948291,-251.716211024846,944.888538725441,3429,0,-720,14973,5006,229,1248,-559,679613,500,3.14317
482.11422005886595,-451.719142477959,-1071.4501891860302,-1288.5855615338698,-730.9329264309199,-319.766088757315,-193.253138861735,510.625745554804,3429,0,-720,14973,5006,229,1248,-559,679614,500,3.143211
410.181781768333,-156.486709640594,-954.338018096169,-692.459512808971,16.8871842519438,517.411453997251,-175.262412833399,274.552695664344,3429,0,-720,14973,5006,229,1248,-559,679615,500,3.1432550000000004
222.86321632299197,-215.727385202656,-368.60889273369696,89.0361627113307,881.573763146007,1224.8646174813,-64.0773257157998,278.922274342855,3429,0,-1033,14906,4894,-128,810,-795,679616,500,3.1433020000000003
-259.255028523592,-327.882109289058,350.93218261259597,702.7635054108099,1424.3851160566599,1460.3494097017701,-131.165022403875,-38.74745068699121,3429,0,-1033,14906,4894,-128,810,-795,679617,500,3.1433500000000003
-477.962207611388,-440.610893951147,226.72711236949502,448.21487967166496,974.5657452857989,783.558371164952,-145.73498729558202,-87.1183949869592,3429,0,-1033,14906,4894,-128,810,-795,679618,500,3.1433980000000004
-259.652334243525,-237.89083099143997,-424.608822274487,-575.313430776907,-839.056966936711,-1039.54493639676,20.744535297562802,111.567203730345,3429,0,-1033,14906,4894,-128,810,-795,679619,500,3.14345
628.707741441438,630.104531971272,-271.803559632972,-978.858551328362,-1357.0095741499401,-1502.25837326422,47.0135440310114,465.772932893247,3429,0,-1033,14906,4894,-128,810,-795,679620,500,3.1435030000000004
661.26512895574,641.557716656476,-24.5024499398423,-914.2401023694259,-1310.94917907353,-1426.4865835584899,-53.253111943427896,383.257498168154,3429,0,-1033,14906,4894,-128,810,-795,679621,500,3.1435600000000004
863.3206166869201,782.0297228510029,325.048473642324,-406.18814309506007,-1110.38812767467,-1118.07467941218,77.289824324951,510.444184577675,3429,0,-1033,14906,4894,-128,810,-795,679622,500,3.143615
888.913402298553,733.8925582281081,373.09137661731796,-66.4453559133399,-716.520068041398,-652.4834078453711,107.81864934600901,585.341499996372,3429,0,-1033,14906,4894,-128,810,-795,679623,500,3.143672
568.328010754019,328.579069565167,161.151912232512,67.3268947874894,-514.366754040297,-627.9416309838421,-16.0686675002798,478.418723976472,3429,0,-1033,14906,4894,-128,810,-795,679624,500,3.1437320000000004
120.54922810071699,78.369862328982,-68.02213705086609,-300.428398922813,-264.03665549174195,-358.226361233043,-129.464554280334,166.11318552983,3429,0,-1033,14906,4894,-128,810,-795,679625,500,3.1438
202.061788509949,272.505497421254,200.554014932597,-56.4004657241749,-274.20256319543097,-206.146016885526,-117.22100899380199,142.90632932959102,3429,0,-1243,14790,5005,465,525,-302,679626,500,3.1438680000000003
369.00443338919996,214.77579362154898,58.332392213400496,22.601658452767897,-266.34333033365004,-307.374546517385,-152.82558158540598,216.377058930695,3429,0,-1243,14790,5005,465,525,-302,679627,500,3.143936
552.7290303190821,502.588541211677,565.8070939907341,994.9879827547121,432.081871172501,-299.00854865566396,-160.15463905408998,294.884287726483,3429,0,-1243,14790,5005,465,525,-302,679628,500,3.144006
295.895512807678,233.270738417516,238.137945717433,691.147014013783,751.1009473032029,-89.9985448152293,-183.28582985367402,173.65030724182702,3429,0,-1243,14790,5005,465,525,-302,679629,500,3.1449420000000003
-10.4108739731601,-228.461039439193,-411.397449782351,-258.83682356213103,-11.114265000826002,78.6425508304965,-2.4029844613396603,77.7733736006776,3429,0,-1243,14790,5005,465,525,-302,679630,500,3.190913
-93.2738239560567,-418.09382575971495,-634.438237325987,-630.511895159725,-426.930642244493,236.230884161079,27.1591799390735,68.5528631880879,3429,0,-1243,14790,5005,465,525,-302,679631,500,3.190973
