CH1,CH2,CH3,CH4,CH5,CH6,CH7,CH8,Vbat,Trigger,AccX,AccY,AccZ,GyX,GyY,GyZ,N,fs,Timestamp
324.69608929089696,459.485684964689,573.6780204579701,796.305069375434,1849.8255420202302,858.6297951592129,162.731989524153,152.60251312341998,3427,0,-51,15141,4323,1362,454,105,678338,500,0.564686
163.317557141912,124.173937429441,201.479875514633,383.70711232838204,789.726857303671,442.27259131963405,77.121354627714,77.35809437162241,3427,0,-51,15141,4323,1362,454,105,678339,500,0.564718
-369.70071644586307,-854.877941431594,-370.789962072275,141.208435295877,500.070182153519,96.68468673375901,73.07023339881559,-32.724586194963194,3427,0,-51,15141,4323,1362,454,105,678340,500,0.599016
-1080.88505500756,-1873.3448597807399,-1499.35298771819,-943.9455843685139,-297.76826367469,-200.866533349035,111.797925205436,-255.712111794273,3427,0,-51,15141,4323,1362,454,105,678341,500,0.599035
-1041.81111836268,-1530.50614541862,-1287.1126102366302,-351.980085860356,197.29468629072701,172.10964806156701,94.3878146852367,-333.799258157727,3427,0,-51,15141,4323,1362,454,105,678342,500,0.599051
140.617709599639,8.55680914758705,-207.944163191481,542.655699029448,1271.48419510506,943.882405444863,91.10386349062901,62.12505868601149,3427,0,-51,15141,4323,1362,454,105,678343,500,0.599066
545.077913800371,608.190824170713,628.2005844628441,564.520115013729,733.271766882128,668.509253613884,42.1450186803704,213.609851262998,3427,0,-51,15141,4323,1362,454,105,678344,500,0.599082
669.198185899848,990.6323890872301,977.874589419109,291.940446132096,-259.34659990127005,338.91140252363397,-5.210343782440759,229.03880021325298,3427,0,-51,15141,4323,1362,454,105,678345,500,0.599099
80.21987579064441,363.581737775588,413.865717048058,227.464984717692,336.522451798839,366.19614487851504,21.563088333350603,-29.0141373142833,3427,0,-148,15534,4258,814,779,186,678346,500,0.599116
-21.4270703538205,442.950955862761,727.405592985684,954.807796205336,1427.77281002572,411.013226643088,-45.410817719704895,-96.02536978432909,3427,0,-148,15534,4258,814,779,186,678347,500,0.599133
243.894804264128,452.74315399071196,616.646824135561,670.340223033039,854.727240295993,320.105021733441,106.08385140990102,118.040440361248,3427,0,-148,15534,4258,814,779,186,678348,500,0.599151
338.94444232564996,295.445931983064,86.8923230404034,68.41868424820129,115.89237832184901,-110.535469567869,-18.5914533945615,106.829236560734,3427,0,-148,15534,4258,814,779,186,678349,500,0.5991690000000001
820.354868732422,818.8301281953461,419.36544121441,-45.015648534288594,-111.878718620952,-135.314110582578,-44.3219700289774,275.621921798331,3427,0,-148,15534,4258,814,779,186,678350,500,0.59919
224.462852641562,-109.260820456664,434.6401627335,881.433194904734,1412.1923911666102,795.212162941811,66.4138106488972,196.84060932498002,3427,0,-148,15534,4258,814,779,186,678351,500,0.59921
-616.408129226562,-1289.10040920612,-276.721445815987,512.357933896419,990.30172869013,1019.45834012725,37.6334038806963,-99.58879979152701,3427,0,-148,15534,4258,814,779,186,678352,500,0.599232
-870.381436420837,-1212.9666906957302,-565.790386450477,-52.8652289683232,447.434934226534,606.854048778303,-288.912958473025,-449.949827447883,3427,0,-148,15534,4258,814,779,186,678353,500,0.5992540000000001
-288.389640535461,214.75255648873298,-247.02954980626203,-412.27865392164705,305.847084644192,541.2271998412909,-264.552680843684,-462.019205614226,3427,0,-148,15534,4258,814,779,186,678354,500,0.599665
-10.7844799487502,290.033016902278,-274.088371480815,-611.169446566695,-390.482556074247,-157.61147210747,-18.880810900591303,-134.058510071598,3427,0,-148,15534,4258,814,779,186,678355,500,0.5996950000000001
105.34876059362401,-73.8800996781792,91.73124605312479,143.462640967802,-161.867164990108,-557.543071937631,105.468085160537,185.836943893461,3427,0,-574,15879,4156,-686,717,-40,678356,500,0.59972
-12.509012884082,-287.16513136366797,113.117745808908,391.79224691671,733.684659782506,220.162087322911,-96.6950371416169,56.531975443474906,3427,0,-574,15879,4156,-686,717,-40,678357,500,0.59975
-1021.27866732667,-878.380255913595,-171.841117198463,166.963395263592,669.990255580371,650.273028174764,110.11244010500401,-197.36625051789503,3427,0,-574,15879,4156,-686,717,-40,678358,500,0.630985
-1304.8948337477,-923.567445463385,-530.7469319216909,-137.545324476552,193.66651877603698,-16.146107441279998,79.80889987328558,-427.217424932984,3427,0,-574,15879,4156,-686,717,-40,678359,500,0.63105
49.794572038546896,480.727963405312,256.664503691019,244.457697583275,-102.810969472193,-810.3857242789819,-44.525242644595004,-180.164522256469,3427,0,-574,15879,4156,-686,717,-40,678360,500,0.6310990000000001
531.949353252508,900.5527870196381,396.24770215258496,-42.141772505972796,-778.174382837751,-1578.7752823184699,-205.06733394891498,-131.957721908693,3427,0,-574,15879,4156,-686,717,-40,678361,500,0.631158
470.445463345968,465.446512392606,-56.2130254815565,-307.273152203037,-649.08267695579,-1724.3659333040698,-336.765408986888,-184.716116944444,3427,0,-574,15879,4156,-686,717,-40,678362,500,0.6312190000000001
229.823090256716,352.760571692837,236.325934605557,670.120047803444,897.492106062098,-744.143781637889,-354.512320002425,-241.777159022866,3427,0,-574,15879,4156,-686,717,-40,678363,500,0.6312800000000001
1.1402674289711299,9.92511076573282,-207.188560156501,-166.380562274397,-145.10955533650102,96.66719752864451,-62.96860962314529,-117.254324568668,3427,0,-574,15879,4156,-686,717,-40,678364,500,0.6313460000000001
-617.216629430302,-968.602074248367,-1056.56735479669,-1184.22160354839,-1171.7044577635002,267.12695421394903,204.068152385589,-134.400134806521,3427,0,-574,15879,4156,-686,717,-40,678365,500,0.6314110000000001
-1034.04685448215,-1674.5100576749498,-1161.91305029194,-733.4672653079609,-893.563291174447,151.236123464303,173.61330132040902,-261.63239543000196,3427,0,-1006,16016,4151,-2113,188,175,678366,500,0.631495
-656.596663153643,-1491.0778879961,-1090.0045317671002,-444.331259066123,-860.3407926642099,-298.105912308209,104.775849049096,-144.791445329902,3427,0,-1006,16016,4151,-2113,188,175,678367,500,0.631567
-363.33394670652297,-1112.12237990415,-1615.19899911259,-1847.1634296498398,-2440.34962980775,-1238.6980878316099,216.661992887617,4.38346934749279,3427,0,-1006,16016,4151,-2113,188,175,678368,500,0.6316430000000001
187.63608196724098,155.522333882283,-692.8394573868719,-1686.13559899331,-2842.81743800675,-2022.4087596031602,-103.149716928601,-101.709959464148,3427,0,-1006,16016,4151,-2113,188,175,678369,500,0.631719
242.79516246452098,504.015452683787,-79.1011365593877,-587.9622714942379,-855.156699010986,-1071.10970564885,-316.60776050348096,-200.51204414886902,3427,0,-1006,16016,4151,-2113,188,175,678370,500,0.631795
247.568586747366,475.482022123178,-81.19669232482559,-738.706299062178,-1652.91113483056,-1036.9511469893598,-204.420215435384,-78.454511464457,3427,0,-1006,16016,4151,-2113,188,175,678371,500,0.631876
354.62855557134003,846.7722623979209,694.840443174704,1149.6409921467698,1750.9833007836999,1211.88198399183,-210.887690020667,-136.79246430099,3427,0,-1006,16016,4151,-2113,188,175,678372,500,0.631958
69.7953776747745,148.096663077828,325.307305344148,1318.03693104221,2034.6695761480103,1811.78435394692,66.9453095208155,-123.84055052744199,3427,0,-1006,16016,4151,-2113,188,175,678373,500,0.6320410000000001
105.52147165386101,18.6130939979339,592.39870408515,1599.55283037474,1311.04966090366,987.0419739200729,6.4136565772933,-80.23938483768141,3427,0,-1006,16016,4151,-2113,188,175,678374,500,0.6922790000000001
242.159405130602,291.22551349469,278.7648829018,-65.2835213337385,740.5079603225751,750.920443751034,57.9372440139414,65.1763118414674,3427,0,-1006,16016,4151,-2113,188,175,678375,500,0.6923090000000001
161.438584992517,408.378990709432,237.34822504851002,-435.344396321336,-715.322125706181,-382.616031209473,111.79637975740499,97.473942443612,3427,0,-1142,15786,4266,-2044,-232,227,678376,500,0.692331
225.812669341918,422.691333841416,224.264355406049,-395.318454444554,-1855.8138592708603,-1268.45171450335,63.616425552405396,58.8084359619534,3427,0,-1142,15786,4266,-2044,-232,227,678377,500,0.692355
239.68668837379698,335.446243490209,201.397613753099,-165.971301098034,-654.636738046742,-196.42651154380297,32.9293251553318,62.3608141420409,3427,0,-1142,15786,4266,-2044,-232,227,678378,500,0.6923790000000001
280.209197290853,350.639614922344,88.3776153489016,235.417661644897,1797.5987359786802,980.474941570894,-132.525345985137,-40.4644675868331,3427,0,-1142,15786,4266,-2044,-232,227,678379,500,0.692404
209.90883807154,211.598824648885,104.958793762955,193.542804102239,887.109324091929,319.116566498415,-6.728481588186701,16.9953070327174,3427,0,-1142,15786,4266,-2044,-232,227,678380,500,0.69243
60.97843998626921,148.817021011375,175.98483697115398,224.726757830096,86.33602354553301,-126.30242793960501,-32.557970667898196,-90.2312688370002,3427,0,-1142,15786,4266,-2044,-232,227,678381,500,0.692457
33.155019913916504,-57.2798233248759,-38.094420761452106,-19.755244054104,-237.37999581336,-404.17350923968496,54.229701284784795,-4.32224610273261,3427,0,-1142,15786,4266,-2044,-232,227,678382,500,0.692485
-164.252860677429,-583.768259953358,-535.697728140512,-274.102124051598,314.471293822135,24.019890980096502,125.025262246374,3.0019195480272205,3427,0,-1142,15786,4266,-2044,-232,227,678383,500,0.692515
-151.496129830397,-271.89346284826803,-28.3510251676198,183.279086102295,516.576357361017,699.276699543698,140.27579028625,-61.315227595041506,3427,0,-1142,15786,4266,-2044,-232,227,678384,500,0.692546
214.880916154798,239.81535049097099,48.331471819081294,84.40597048372729,432.919612340105,1093.78710470989,108.62429399276199,34.1726167724701,3427,0,-1142,15786,4266,-2044,-232,227,678385,500,0.692577
339.16891869829897,499.66929423378303,273.116416986217,129.863717892062,549.039829808753,502.50044384517196,-67.72316228068671,0.273414930794388,3427,0,-908,15344,4282,-1213,19,-134,678386,500,0.6926100000000001
269.10474997630797,310.066544957575,336.084167502937,379.460435688816,190.665189456544,-655.8073961338961,65.2018349044374,57.228441100684,3427,0,-908,15344,4282,-1213,19,-134,678387,500,0.692643
-49.5253432713507,-211.07939271535702,-0.23985549551434804,77.37740013169241,299.84415504871896,9.987213083542882,151.745747407957,-29.629486556863398,3427,0,-908,15344,4282,-1213,19,-134,678388,500,0.692678
-123.687897029915,-465.34754480433196,-314.476480467827,-411.735596618877,-395.29904443858004,-147.404845347162,195.465617670561,7.82295347144827,3427,0,-908,15344,4282,-1213,19,-134,678389,500,0.6928500000000001
-132.325961121882,-327.867388977786,296.426165142446,1046.06200116736,196.21180649945703,-523.437310366426,19.013925605919198,-9.84865830210038,3427,0,-908,15344,4282,-1213,19,-134,678390,500,0.6928970000000001
-66.3199922341737,-102.65403331758002,120.591252896236,500.10877217832603,253.642747500446,-634.391887112055,-16.110535406624,-82.9489953489974,3427,0,-908,15344,4282,-1213,19,-134,678391,500,0.692937
73.3952784702415,42.2387148418929,26.447107633925,100.07817060770999,269.602952635556,-90.0509422740433,58.51635449659079,-61.721063660690604,3427,0,-908,15344,4282,-1213,19,-134,678392,500,0.6929780000000001
297.818856193888,299.60123274079496,73.59580583521159,-259.185978948663,694.776739663212,1113.3059081519,220.652440022095,105.324901841464,3427,0,-908,15344,4282,-1213,19,-134,678393,500,0.6930200000000001
419.05981332948403,496.10081441910006,467.964029864292,216.818357351614,380.23527291297796,562.535782575491,333.055320459302,241.462052348652,3427,0,-908,15344,4282,-1213,19,-134,678394,500,0.693065
159.159215363266,30.279551180894497,357.534714826965,594.451524575532,682.748282129731,742.068800195819,362.554272107664,204.96531286661,3427,0,-908,15344,4282,-1213,19,-134,678395,500,0.693111
-16.014838567527498,-372.08852129185095,-182.81549025978902,-63.1693383818783,-120.60784760105899,337.989154700073,433.40796609234496,245.434760649689,3427,0,-711,14902,4366,-142,207,-74,678396,500,0.693157
-307.256528514292,-675.011397388647,-634.9235293808159,-319.051942078426,57.9567865334102,7.51081852067728,337.404219492397,136.327262277831,3427,0,-711,14902,4366,-142,207,-74,678397,500,0.693203
-272.875394389412,-567.682715366129,-751.437048394117,-447.508326652227,-156.253024844744,-357.59696155076404,181.967590871791,16.651975549641097,3427,0,-711,14902,4366,-142,207,-74,678398,500,0.6932480000000001
246.03528392515702,465.493214815622,12.0056243306026,-136.100904552179,-169.03243557430702,-352.43267949146696,10.577455743041401,-16.0673003765987,3427,0,-711,14902,4366,-142,207,-74,678399,500,0.693297
423.563747839857,618.208260529442,582.071025755722,34.286069029622,-280.026509482006,-466.56861505773804,-36.4420119450078,88.75963321153542,3427,0,-711,14902,4366,-142,207,-74,678400,500,0.6939110000000001
233.16001932660598,-20.0425718718907,18.086433508317,-157.19221839754,-235.592849542882,-254.305903305649,-6.354415537032759,116.749306944082,3427,0,-711,14902,4366,-142,207,-74,678401,500,0.6939730000000001
-53.2560096752713,-314.43601071741404,-235.763312095194,34.3316335206327,429.386598030542,140.152893681312,-77.0106727047823,-27.5332361101173,3427,0,-711,14902,4366,-142,207,-74,678402,500,0.694033
171.711112754158,430.342843334773,398.00041169463697,453.01781273874803,390.42265730243497,-46.692582360934495,-44.4256988350535,2.8989288115408303,3427,0,-711,14902,4366,-142,207,-74,678403,500,0.694087
537.955359090935,990.9048009889669,581.617096288712,357.659644369851,230.69292837561798,100.70832441048701,18.560237143014103,174.062920136494,3427,0,-711,14902,4366,-142,207,-74,678404,500,0.7546390000000001
564.7124101865339,751.4181529426711,553.237524983822,515.889815494622,679.134056363313,165.77111482806498,12.1903943310026,266.564153149258,3427,0,-711,14902,4366,-142,207,-74,678405,500,0.754676
205.539612787514,139.256599152577,331.41012380458403,531.0118249447261,698.6125712584179,229.02116271981498,97.3242764641764,156.169294415275,3427,0,-665,14593,4452,1063,361,-98,678406,500,0.754704
-177.974603318726,-553.7092703635569,-150.009155177162,189.169246504985,421.68404275726095,268.61620573617995,261.884651997942,50.1281394099351,3427,0,-665,14593,4452,1063,361,-98,678407,500,0.754734
-167.144037138467,-622.870833272813,-388.899054743932,-198.09919701624298,-101.233110278001,156.656820002827,441.273438886972,142.171004526899,3427,0,-665,14593,4452,1063,361,-98,678408,500,0.754766
93.981898616039,60.1279049516888,-112.01740159839399,-244.637485684128,-338.37348925735597,-269.921899304725,226.868703910499,137.65923398628402,3427,0,-665,14593,4452,1063,361,-98,678409,500,0.754797
192.84384755222698,379.82769366772794,51.10515950131229,-311.45368664449796,-558.626777743106,-451.67013528652,105.56342873943501,80.5298522164812,3427,0,-665,14593,4452,1063,361,-98,678410,500,0.75483
459.40052766230696,788.932376280893,419.88164204987703,68.7687998041802,-180.853644336894,-195.870140836574,189.48683848494,154.291495458689,3427,0,-665,14593,4452,1063,361,-98,678411,500,0.7548640000000001
162.137569828308,281.631941639003,139.095100276987,36.804461818916,-16.477699239389,4.07459953788202,192.855091098638,49.2453790390864,3427,0,-665,14593,4452,1063,361,-98,678412,500,0.7548990000000001
114.03574991563801,124.49174989061399,-82.5406935621286,-211.39884393670897,-182.090077981178,46.4978855053196,186.23625271767398,54.821218911209094,3427,0,-665,14593,4452,1063,361,-98,678413,500,0.754935
217.579577774217,128.308418061468,-27.1315270077903,-83.839481850795,42.9276207013463,270.245141847408,146.899135628541,83.1814423638862,3427,0,-665,14593,4452,1063,361,-98,678414,500,0.754973
-35.93933567559,-166.051493267762,-148.306327486993,-135.75035362769302,-4.17158815675066,256.663557419786,115.997460698767,50.5657218998531,3427,0,-665,14593,4452,1063,361,-98,678415,500,0.755013
-164.060146926029,-187.42373326118098,5.31812693399843,103.16626782430099,191.79162552315398,370.44103184773104,97.40208504768091,39.2239889348857,3427,0,-674,14543,4530,1838,510,-410,678416,500,0.755054
-337.280646653293,-319.821310793399,-145.07493157126,151.277246066864,168.663471601991,209.502913147677,66.1164023045567,-61.414814433315804,3427,0,-674,14543,4530,1838,510,-410,678417,500,0.7550960000000001
-312.556749889016,-348.197116580443,-217.065752791823,89.46939720565571,-114.544004173193,-181.970287044067,49.131263744668104,-76.3260148544796,3427,0,-674,14543,4530,1838,510,-410,678418,500,0.755147
-154.967337212089,-333.473819853272,-112.25595787866001,-24.2386689048144,-123.911352728814,-275.392546900548,42.2937679123715,-0.617100972798653,3427,0,-674,14543,4530,1838,510,-410,678419,500,0.755193
117.92226706279301,-180.790569457458,-194.58115961845002,-227.950475356716,-234.518982717593,-352.73116757837096,107.08973039546999,119.858726298087,3427,0,-674,14543,4530,1838,510,-410,678420,500,0.75524
212.500102188758,24.649137316620898,-199.352201347821,-1.7985213080246498,15.006243529409401,-287.978187123314,65.7352252825513,85.788443192374,3427,0,-674,14543,4530,1838,510,-410,678421,500,0.7552890000000001
130.989183899539,90.38539535913151,-52.012661437154705,365.62256777123497,490.970244226133,-21.298291649553,10.982121174398301,23.3216160850134,3427,0,-674,14543,4530,1838,510,-410,678422,500,0.7553380000000001
-128.38330954406402,-311.76354683400103,-541.514903978794,84.4934334056452,433.291953665466,128.765111632762,-16.256517046538598,-61.2222155862255,3427,0,-674,14543,4530,1838,510,-410,678423,500,0.75539
25.905445489246603,-341.192168909009,-637.322034516954,-367.03392323068704,-50.9939594875614,354.461707491195,238.07583095092602,161.365977267735,3427,0,-674,14543,4530,1838,510,-410,678424,500,0.755445
367.078246316378,360.163609505515,217.119957832387,-333.922579085862,-285.762355786195,369.632965148427,268.61110687500303,260.924897199729,3427,0,-674,14543,4530,1838,510,-410,678425,500,0.7555010000000001
297.533911421226,615.498486769036,470.598019978614,-378.72383303655096,-358.588389719662,-34.7606645133346,6.59311934921425,33.2815265269019,3427,0,-718,14765,4570,1356,703,-486,678426,500,0.7555580000000001
78.790673028474,228.64178191812198,131.600686272024,-298.732473812823,-288.385198845732,-252.24736437562402,-10.672746112046301,-50.408407547627604,3427,0,-718,14765,4570,1356,703,-486,678427,500,0.755622
63.5127193024382,165.599661636865,212.21747388341498,71.4393470046343,-119.672751326812,-316.952544044121,56.74585400271461,13.0294443364255,3427,0,-718,14765,4570,1356,703,-486,678428,500,0.755684
-126.47628291678801,-28.8299516136758,-20.217124281683898,-177.149476561026,-459.873062912608,-562.69283127517,-29.716610853793103,-90.2810444234638,3427,0,-718,14765,4570,1356,703,-486,678429,500,0.755746
-155.088369091012,-247.661580349784,-282.54195390047994,-188.102894519048,-319.802502980863,-515.1683677153201,77.68859648762741,-25.3484930248233,3427,0,-718,14765,4570,1356,703,-486,678430,500,0.755808
-65.08126088324929,-105.00835487165001,-108.30645443696999,85.2992874377815,55.043041235447205,-367.848796140868,61.518706142262104,-12.900620039668901,3427,0,-718,14765,4570,1356,703,-486,678431,500,0.7558680000000001
248.391066715703,359.82884885172797,322.131504301215,300.627878941188,243.349851262145,-53.41762673459021,64.4295083811739,111.68564178084499,3427,0,-718,14765,4570,1356,703,-486,678432,500,0.7559400000000001
195.22166986585898,145.087152639171,64.4778972783824,-60.1359127856558,47.6970004011528,254.107838043943,105.063791966473,162.168232120341,3427,0,-718,14765,4570,1356,703,-486,678433,500,0.756704
-102.74674678302799,-454.5396278525,-481.128366029821,-365.71112987553397,-315.4450569037,283.509036351927,167.048938032356,100.71445924683901,3427,0,-718,14765,4570,1356,703,-486,678434,500,0.8183140000000001
-248.921959368599,-623.324626502348,-624.391298970208,-482.619221604225,-628.327555370022,97.88275870075451,169.622440315143,63.87406984192779,3427,0,-718,14765,4570,1356,703,-486,678435,500,0.818343
-0.732215409574565,104.39423807524099,97.7248234066647,-84.2816250162723,-129.36245627156998,147.107338828733,79.7387465672218,74.1973060193704,3427,0,-806,15103,4425,427,673,-303,678436,500,0.818366
194.67089317998,464.278974261484,437.170850917697,134.185562652419,226.239742475474,129.13043899810899,24.7617498776526,98.30116444849409,3427,0,-806,15103,4425,427,673,-303,678437,500,0.818389
96.45854474246148,247.253461315762,291.38758552970796,154.15128888638,106.356630881957,-29.739006156567502,125.49474446126301,144.95632600633002,3427,0,-806,15103,4425,427,673,-303,678438,500,0.8184140000000001
42.1999607144098,149.196739528677,205.05068862054,268.267535543215,349.690071794874,-0.792796483146958,73.9154451583163,58.854923997423604,3427,0,-806,15103,4425,427,673,-303,678439,500,0.818438
-72.9949765128549,-215.952815780998,-179.33372284926003,126.549146303092,260.04732349255903,-253.438228006824,-8.822521653550211,14.570029715076098,3427,0,-806,15103,4425,427,673,-303,678440,500,0.818465
-170.848575313052,-443.371973631671,-387.98661335185204,126.71377218377899,227.16360768475,-344.91306628834,-45.808342504082205,-3.32501089316793,3427,0,-806,15103,4425,427,673,-303,678441,500,0.818492
-126.361521100713,-326.085046388558,-263.101150566712,310.714432742767,632.923735189426,132.197074358817,-44.568135127832605,-14.0402269610204,3427,0,-806,15103,4425,427,673,-303,678442,500,0.818521
-33.7314883583458,-31.3756545751821,-59.271465034340494,315.518297597242,1008.7483134603801,739.487200965174,-63.2165923465509,-33.56479897664389,3427,0,-806,15103,4425,427,673,-303,678443,500,0.8185490000000001
-202.618405145942,-177.593674162286,-184.927369597252,-34.517627497203605,710.055092742899,771.7354576746001,-84.6109296311042,-144.268892457243,3427,0,-806,15103,4425,427,673,-303,678444,500,0.8185800000000001
-195.482743657252,-141.116958505823,81.53543767298109,212.091771593026,463.75761169617203,716.101054636179,-48.0974945243797,-95.57921421201901,3427,0,-806,15103,4425,427,673,-303,678445,500,0.818612
15.2894653714611,73.78410888288641,390.379834078369,734.8559394292821,354.673404212575,401.765531422105,-31.913071449147502,33.9933805074543,3427,0,-825,15318,4220,-306,606,-203,678446,500,0.8186450000000001
-2.15141736503574,-54.8563392249634,519.45902890095,1279.8817321465801,491.39909151845495,194.689226339804,41.707779598131296,99.3405460937647,3427,0,-825,15318,4220,-306,606,-203,678447,500,0.818679
-48.1930591090641,-190.83191231556702,297.10723562398897,1231.7408211260301,487.273614756938,71.67841085500551,138.25754076871098,132.067889452679,3427,0,-825,15318,4220,-306,606,-203,678448,500,0.818714
-257.625986298168,-344.97688514029096,-64.5852413568646,506.41779937676597,27.0509973269072,-269.417006916599,91.49046334810551,-4.555509301833809,3427,0,-825,15318,4220,-306,606,-203,678449,500,0.8187500000000001
-343.196398490545,-318.30905813165003,-313.440087676281,-305.267025822628,-344.944560598175,-480.03653755283403,131.759741993155,-55.9979127463885,3427,0,-825,15318,4220,-306,606,-203,678450,500,0.8187920000000001
-358.122518566524,-439.03621581383,-474.70654762070603,-684.461527911684,-228.326732144254,-225.91503566759602,100.964989914326,-71.0208494926337,3427,0,-825,15318,4220,-306,606,-203,678451,500,0.8188310000000001
77.3188705302891,138.377612234908,5.03834108379669,-669.345321159431,-175.762264680554,339.065728710149,139.119329561945,132.770785330446,3427,0,-825,15318,4220,-306,606,-203,678452,500,0.818871
470.550898007845,675.781741348212,339.667582720751,-380.117650200555,-21.4914508390939,555.1290898025039,-27.919986986729803,193.894071612158,3427,0,-825,15318,4220,-306,606,-203,678453,500,0.8189110000000001
152.300247421575,386.60766896931506,578.680049425457,173.82460433853,395.19020954880403,409.73010382230905,-34.8665919710766,52.51595943607389,3427,0,-825,15318,4220,-306,606,-203,678454,500,0.8189540000000001
-49.6887901222217,253.072765289224,787.853918043082,762.579849160276,777.8342761037351,95.2064004358836,-56.6312752807862,37.1195770427585,3427,0,-825,15318,4220,-306,606,-203,678455,500,0.8189970000000001
-141.82887632245502,85.4206275759498,476.64293943589996,588.7057316584691,499.796890176629,-648.666698918561,-78.1219432850485,103.40120063105101,3427,0,-779,15361,4249,-525,632,-164,678456,500,0.8190440000000001
-90.7070510714839,17.2458846267546,599.591748571023,1241.78923972711,1133.4960780307902,-775.0522696886909,-212.628250583541,35.689052829169704,3427,0,-779,15361,4249,-525,632,-164,678457,500,0.819092
16.4234702962276,-341.245840531541,143.615083038108,600.760751881375,726.734887775703,576.877818454872,274.651153549785,255.020010835375,3427,0,-779,15361,4249,-525,632,-164,678458,500,0.8191400000000001
57.622011958330404,-676.3662167210131,-776.715050107799,-987.276427813689,-1138.76352066323,231.47764950816102,479.57325694192,303.658876068192,3427,0,-779,15361,4249,-525,632,-164,678459,500,0.819188
615.051878156199,177.270431951387,-570.538463983685,-1190.0363562741,-1379.00223293516,-262.655230853008,361.931212429889,422.234420420253,3427,0,-779,15361,4249,-525,632,-164,678460,500,0.8192360000000001
308.8872351592,22.518796189455298,-521.938611368416,-1117.93108637002,-1206.76331830554,-323.296261599404,200.03173313202598,227.27631733915797,3427,0,-779,15361,4249,-525,632,-164,678461,500,0.819292
6.53380448554526,356.634465290001,-17.7956463432638,-844.9519012948731,-793.160111163743,67.99347662017679,200.139329615049,59.5875574871898,3427,0,-779,15361,4249,-525,632,-164,678462,500,0.819346
340.972234282555,718.363645877806,311.115500137326,-270.268375768996,-156.129147172789,427.563039962668,118.750535709958,144.414590248954,3427,0,-779,15361,4249,-525,632,-164,678463,500,0.819401
254.84118739567901,446.50603810755996,225.489842691342,29.9314563155058,140.047807135677,647.476093403413,0.611093414074276,91.0396656474331,3427,0,-779,15361,4249,-525,632,-164,678464,500,0.819455
154.869537892489,307.21283970587,291.974051594385,316.44380833403596,551.7702146444641,924.242286213557,6.17772421706468,48.265168916434,3427,0,-779,15361,4249,-525,632,-164,678465,500,0.819508
309.545542326669,373.36504519335,335.754144509789,193.91734751546798,58.9890748570906,499.90612332720804,125.955419686041,186.884761958616,3427,0,-753,15240,4476,-391,767,-49,678466,500,0.820466
384.765626040549,420.7890726974,279.599719096208,-98.01099208329109,-534.965212661918,-81.1312595296185,223.36373891407902,311.841010586126,3427,0,-753,15240,4476,-391,767,-49,678467,500,0.8206190000000001
348.725442435854,419.904547515558,262.891676030238,-59.347410528891494,-494.427412904741,-540.628744090674,136.69756170065398,267.281472117873,3427,0,-753,15240,4476,-391,767,-49,678468,500,0.8818480000000001
133.253564631246,195.42168163810902,99.3075170093216,18.5855264648562,-211.90235263490501,-860.211146854213,-63.1725284782588,70.2309724022634,3427,0,-753,15240,4476,-391,767,-49,678469,500,0.881911
-12.9517650933121,51.24666159180921,56.01807960751471,99.51950654419491,-133.633851060382,-840.876416648389,-131.357181217929,-52.811818295042,3427,0,-753,15240,4476,-391,767,-49,678470,500,0.8819600000000001
-93.7310382192663,-107.029876986402,-193.432190693333,-384.01524756502505,-745.997428116767,-663.744487647549,-118.19175392197201,-83.8850888031302,3427,0,-753,15240,4476,-391,767,-49,678471,500,0.882023
-301.691146726196,-337.856657817145,-454.665975142037,-677.653576911107,-852.817763070721,-379.48642057331705,-130.029754293151,-208.97292733239,3427,0,-753,15240,4476,-391,767,-49,678472,500,0.8820800000000001
-326.180627014226,-301.451149108936,-276.365063717938,-177.570124393882,31.5006075755518,220.229325115099,-164.57098691427402,-233.11586447781897,3427,0,-753,15240,4476,-391,767,-49,678473,500,0.8821380000000001
-191.352085587278,-146.238886020612,-97.2986617615679,87.71369553005209,484.419853002764,662.3915972517569,-97.3122977406019,-111.861206488218,3427,0,-753,15240,4476,-391,767,-49,678474,500,0.8821960000000001
-118.818275372148,-88.3587921494618,-95.3639377086656,-84.5858678002842,279.76655809395,870.444593166118,-130.264333529049,-98.4472188537475,3427,0,-753,15240,4476,-391,767,-49,678475,500,0.882256
-55.1355634772626,-143.49135787761801,-116.305797281791,-156.349584189855,-41.591591537289794,410.055303294095,-29.6377581026754,4.24028466339223,3427,0,-819,15049,4596,74,790,-24,678476,500,0.8823200000000001
-92.61432131382749,-222.773465330829,-90.27550055424221,-101.00521646966801,-103.54225125131799,41.8551134774461,0.17113342467928302,44.0330089114141,3427,0,-819,15049,4596,74,790,-24,678477,500,0.8823890000000001
-52.1092077508802,-95.35129203472749,17.9142172466964,12.2830135697732,-200.49008587416,-242.248996448587,94.201278180175,68.4208868915448,3427,0,-819,15049,4596,74,790,-24,678478,500,0.882461
34.5982045104611,103.026874648291,-7.41607720765751,-198.81150271502,-640.055600010091,-670.863955714158,105.56630032853,50.764185304055005,3427,0,-819,15049,4596,74,790,-24,678479,500,0.8825350000000001
65.56542704885939,-80.6873912168667,-328.56615171616403,-582.161453054141,-881.3200081262911,-822.8073928277009,-72.0265365900123,-2.44888011307921,3427,0,-819,15049,4596,74,790,-24,678480,500,0.882607
-440.47962684542296,-1011.38899468025,-654.63658653188,-483.703142860788,-594.838937173859,-639.916103034746,-166.90535084868299,-167.290663583088,3427,0,-819,15049,4596,74,790,-24,678481,500,0.882681
-1125.02480578105,-2021.8531383867398,-918.972144003492,-206.58730970055302,-36.6443357240059,-9.11655802431051,-76.7497253656038,-379.754682549741,3427,0,-819,15049,4596,74,790,-24,678482,500,0.8827590000000001
-1414.41006477323,-2150.09146710054,-650.30390536983,387.062356180046,637.805605434987,594.92485092592,-119.885191710899,-469.307289727847,3427,0,-819,15049,4596,74,790,-24,678483,500,0.882839
-814.698106395052,-1006.6362808697198,-136.528666259954,608.5785591248709,619.116924848611,462.98373355972603,-161.483540305635,-345.061464032624,3427,0,-819,15049,4596,74,790,-24,678484,500,0.882923
356.910796925687,961.300988984178,414.56083007005503,119.75727984277201,-8.52913315378828,99.1417344345246,-100.20021392201299,-42.485584515728995,3427,0,-819,15049,4596,74,790,-24,678485,500,0.8830260000000001
465.47252603361295,850.551729088649,299.898369875969,-148.315186707536,-577.655862074491,-164.760916108033,-51.60320732172111,55.5766986586386,3427,0,-831,15005,4343,-108,997,-392,678486,500,0.883116
175.16178213752602,328.747411930002,123.056266996777,-72.17921863918309,-423.161705944571,-266.362127916072,-48.3296297324705,48.068857469363095,3427,0,-831,15005,4343,-108,997,-392,678487,500,0.8832110000000001
502.60471685807,776.386543310597,453.2408196365,265.357826278865,-144.374466933979,-306.065588646801,6.5797705836012,198.658545499435,3427,0,-831,15005,4343,-108,997,-392,678488,500,0.88331
439.371580667212,572.470094797667,338.060955781722,159.433501609485,-304.32388055959,-482.39821857190697,0.18469072558218602,160.535601565382,3427,0,-831,15005,4343,-108,997,-392,678489,500,0.88341
358.02967218007007,365.11518253164803,222.31868263008099,14.0820890629548,-483.132606577594,-380.248446407146,197.587451556057,188.469686635886,3427,0,-831,15005,4343,-108,997,-392,678490,500,0.8835080000000001
333.339292728604,358.090867645922,146.769161685836,-56.9112745244638,-232.378546157182,106.21417153417102,437.235912097211,229.95998964703202,3427,0,-831,15005,4343,-108,997,-392,678491,500,0.8836050000000001
183.732133705838,335.240282159066,144.700810333714,149.24561302681101,516.101382894936,837.021824830677,527.793827939196,258.004445634549,3427,0,-831,15005,4343,-108,997,-392,678492,500,0.8837140000000001
-69.3510710432311,222.230987278395,216.189836002304,445.24059823754897,1048.51495176711,1229.74042357644,207.77669891878003,-40.260214288253295,3427,0,-831,15005,4343,-108,997,-392,678493,500,0.883831
-193.065318726905,62.924392775399596,212.24666674411898,380.76686791263603,716.6356587795019,980.515211067628,-76.45238266437079,-70.4621074717725,3427,0,-831,15005,4343,-108,997,-392,678494,500,0.8839480000000001
-37.971858244505704,32.8042463043239,59.2824703543447,-18.8029063751746,-187.500140635966,-3.9896735955262597,-78.88010355993171,109.396384631866,3427,0,-831,15005,4343,-108,997,-392,678495,500,0.8840690000000001
-1167.74013489127,-578.282625514898,-139.473683072836,-36.7523455973133,-180.003765113564,-42.0785741799045,-44.5058005527826,-542.773599850596,3427,0,-531,15446,4013,-879,1277,-394,678496,500,0.8841810000000001
-3740.1862960603603,-1873.3630748031399,-178.730420451495,452.334409038245,357.072825819429,358.55193283793096,97.75933267595249,-1690.6074693347302,3427,0,-531,15446,4013,-879,1277,-394,678497,500,0.884294
-5144.5094677631605,-2739.79258454184,-306.92707979853697,725.6153229493649,456.14260430069396,238.41105045471298,-0.255058551672846,-2517.96721054311,3427,0,-531,15446,4013,-879,1277,-394,678498,500,0.8844240000000001
-3363.03072995556,-1874.12623103871,-95.6370653572958,1046.13614566362,543.0261123481321,-71.03817255236208,-307.719664446893,-2067.86973727937,3427,0,-531,15446,4013,-879,1277,-394,678499,500,0.8846400000000001
362.957037724525,33.1806677257409,10.6622815581504,528.8601901105429,-74.76903542320359,-554.500844850438,-247.621495424828,-159.523606636678,3427,0,-531,15446,4013,-879,1277,-394,678500,500,0.945131
3018.8424144053697,1411.84503975569,-126.84032967744899,-630.893182404077,-993.901425022224,-1142.2102028043,-180.31413695786597,1446.7487313823099,3427,0,-531,15446,4013,-879,1277,-394,678501,500,0.945192
2430.64889532595,1163.36853021919,-374.914185758564,-1338.89064356798,-1060.80750509215,-990.1445301373019,-237.064765623712,1162.67496479768,3427,0,-531,15446,4013,-879,1277,-394,678502,500,0.945243
1068.62069967209,363.438886899035,-457.894786795252,-1246.97219069782,-707.475526413968,-426.540529590216,-148.010445082735,537.273088932387,3427,0,-531,15446,4013,-879,1277,-394,678503,500,0.9452950000000001
609.981031347415,187.61956744571202,-344.053159506293,-968.334631620179,-599.0147398035621,-134.294493639609,-58.0749200501014,346.970944323461,3427,0,-531,15446,4013,-879,1277,-394,678504,500,0.94535
563.4870726614901,330.993551413645,-117.33884658920601,-712.0198394650361,-973.8518376619031,-325.67215946014,-70.62233625166121,298.15612645563704,3427,0,-531,15446,4013,-879,1277,-394,678505,500,0.9454070000000001
185.64035844607898,140.652863323339,21.0867210108554,-384.346956838446,-551.954044688609,-187.70463180332402,-193.316128896549,63.114901754888706,3427,0,-416,15543,3882,-1857,2476,-168,678506,500,0.9454650000000001
-25.5145115236519,166.339048487367,191.57020056236098,-31.932275145489303,-178.034273449361,-91.2025056963321,-90.87724589207208,58.574252658640006,3427,0,-416,15543,3882,-1857,2476,-168,678507,500,0.9455250000000001
-391.04342758157895,-104.438448003144,28.0059392430121,7.0276734692161,-101.93211477148,-336.75687709194597,-75.17621650395449,-46.2803658070043,3427,0,-416,15543,3882,-1857,2476,-168,678508,500,0.9455880000000001
-497.593293574289,-290.343230243656,-109.666948199156,-2.19900006501121,-138.075890866574,-656.743806663551,-197.79904237674802,-185.59862853342202,3427,0,-416,15543,3882,-1857,2476,-168,678509,500,0.945656
-142.688534594752,-155.916265952401,-58.79199772351421,-110.684994191834,-395.36831316814596,-706.385027277982,-113.17733597883499,-31.008421621867498,3427,0,-416,15543,3882,-1857,2476,-168,678510,500,0.9457270000000001
891.4872740322321,395.205298455199,-97.98722337151409,-613.3229110613761,-919.7311897080801,-739.4786837903081,-127.988812172494,343.25792666128797,3427,0,-416,15543,3882,-1857,2476,-168,678511,500,0.9458000000000001
916.9797293212911,507.14941695367503,-2.53339395078365,-530.305830825499,-532.206971028092,-425.312609894201,-94.9104825961404,397.819465015316,3427,0,-416,15543,3882,-1857,2476,-168,678512,500,0.945876
438.288500830764,314.58308525348497,157.31577857607002,54.530968897423,140.672706018348,-46.484607930877196,-200.372238755925,154.55390368332198,3427,0,-416,15543,3882,-1857,2476,-168,678513,500,0.9459540000000001
309.394102553197,322.164656190085,269.450281953788,264.37616617864103,249.639890249528,130.852716526017,-252.83433945232497,59.407093520276206,3427,0,-416,15543,3882,-1857,2476,-168,678514,500,0.9460430000000001
320.227909746143,385.28870235034304,359.30522637662904,314.578569223144,15.387797375762599,136.03973610757402,-177.431859691394,85.6894292555517,3427,0,-416,15543,3882,-1857,2476,-168,678515,500,0.946123
319.982654061314,349.228469226509,302.937024974613,225.017232829006,-257.67694375565,37.807030946598395,-95.01406170678091,133.50261217739902,3427,0,-743,15034,3833,-2187,3339,-394,678516,500,0.9462060000000001
240.228205235617,145.661727896775,-136.325208829716,-480.55094464909104,-313.666140933667,142.530050128349,46.003021570155404,175.74474348838,3427,0,-743,15034,3833,-2187,3339,-394,678517,500,0.946292
211.14760541229,148.349365159753,-82.1672411621548,-325.648695715878,-329.193997944909,-47.2154375982936,42.1578391438234,147.89022810547598,3427,0,-743,15034,3833,-2187,3339,-394,678518,500,0.946381
96.95969529988359,18.8293644955847,-167.806844284758,-342.598676991067,-443.88965887270797,-385.638998991693,-55.0531295162509,34.9155730056809,3427,0,-743,15034,3833,-2187,3339,-394,678519,500,0.9464760000000001
-34.687239371880395,-281.985804390395,-289.139023997937,-350.379832589824,-504.467053045635,-678.0839130848179,-64.59205845085671,33.6561928654555,3427,0,-743,15034,3833,-2187,3339,-394,678520,500,0.946574
-169.657560699794,-484.627486692509,-235.039086316945,-49.9887258090603,-234.344411378261,-567.364219431882,-91.89676587778379,-15.288602163898801,3427,0,-743,15034,3833,-2187,3339,-394,678521,500,0.9466770000000001
-275.110844462237,-608.201138778706,-254.148996595992,73.7412578763033,-65.9667019421177,-222.487046999508,-56.250876010977706,-29.834209850058,3427,0,-743,15034,3833,-2187,3339,-394,678522,500,0.946778
-326.567900154478,-479.783701457316,-266.05407098087,-148.906728821778,-405.505932164961,37.5986395392101,-32.9728743146989,-78.9781238639262,3427,0,-743,15034,3833,-2187,3339,-394,678523,500,0.94688
154.284702235745,232.36546275508599,147.523368519498,203.62937246606498,121.78262346267,412.690753703355,-87.4964804481715,28.512927059317,3427,0,-743,15034,3833,-2187,3339,-394,678524,500,0.9470010000000001
16.9787403850351,-42.2340223900974,-47.2736539769685,28.0507865345862,93.9337677876465,346.82797584682703,-71.7735331153381,3.48602103022859,3427,0,-743,15034,3833,-2187,3339,-394,678525,500,0.947111
150.692007010017,261.97639555588796,252.268177656108,309.79949080379396,204.559731411515,270.842865086277,-45.312906320730704,76.1586452540942,3427,0,-1082,14806,3886,-981,2803,-776,678526,500,0.9472320000000001
13.4243320856185,-80.5762336314656,221.116960393498,452.86811852536596,228.334012066829,169.958614184638,36.4688541513169,170.776923043421,3427,0,-1082,14806,3886,-981,2803,-776,678527,500,0.947351
-516.6469677361889,-539.091264156625,278.789498145226,771.019201165298,-31.4152439432801,-72.77194386057091,125.177877797512,-29.9419742870377,3427,0,-1082,14806,3886,-981,2803,-776,678528,500,0.9474670000000001
-349.424896631041,55.549288933631,457.96168629732,798.968091765768,-352.51307235774595,-588.7299358679451,-3.86248121148674,-161.572153724846,3427,0,-1082,14806,3886,-981,2803,-776,678529,500,0.947589
-404.889030990191,241.288398571545,215.51750689558702,-171.184648046299,64.7912430186407,-215.77494158328,27.7081494674785,-93.7967101172544,3427,0,-1082,14806,3886,-981,2803,-776,678530,500,1.009968
-658.393910315412,-285.830025321105,85.4045636159135,166.629574237246,-42.8475109695282,-239.00491292937699,5.22114549874095,-161.019702315563,3427,0,-1082,14806,3886,-981,2803,-776,678531,500,1.010034
-374.071736702725,-230.97557706723498,44.3627700400539,444.568902759551,86.3774582024489,-134.735892090714,-65.6788172266679,-138.953489577398,3427,0,-1082,14806,3886,-981,2803,-776,678532,500,1.010086
-548.421249176696,-360.640141690965,-260.504751569475,-183.301689458051,-14.576344467379402,92.4546063155867,-40.291174087615204,-191.688355412916,3427,0,-1082,14806,3886,-981,2803,-776,678533,500,1.010137
-1110.1205414407598,-721.2079587489129,-416.467964009149,-626.4375145148371,-52.656612519087496,428.103945650277,108.99929823452801,-250.71338114514901,3427,0,-1082,14806,3886,-981,2803,-776,678534,500,1.010192
-1377.56920438164,-815.8895021766659,-142.16254988266198,-43.4375315811485,402.638879597012,756.563720608945,132.202896071423,-452.090940989787,3427,0,-1082,14806,3886,-981,2803,-776,678535,500,1.01025
-1237.16923493307,-562.539218701073,356.290861494839,706.1893525586349,729.008386325935,786.743167259614,5.05585667735431,-813.910386582138,3427,0,-1405,14519,4152,769,2606,-1351,678536,500,1.010308
-334.283130461961,339.56689950265,683.5438135133589,752.792419103323,556.388000239269,447.835003226064,-125.472322471091,-701.1375728514979,3427,0,-1405,14519,4152,769,2606,-1351,678537,500,1.010378
572.247198943485,979.970290007303,403.47927959845396,-83.662714876642,-217.30255239858502,-307.213180512656,-100.334892719635,-171.378355752095,3427,0,-1405,14519,4152,769,2606,-1351,678538,500,1.0104410000000001
257.051517423504,647.410351588973,320.676837893901,-62.003484774118995,-131.669798581133,-677.184308400145,-215.625663885672,-48.707706270157395,3427,0,-1405,14519,4152,769,2606,-1351,678539,500,1.010512
192.23093717781003,380.59023378824304,217.03341972688202,-11.7936567367578,62.210844766930705,-558.55429627758,-250.96228860242996,-65.6977683659643,3427,0,-1405,14519,4152,769,2606,-1351,678540,500,1.01058
856.628306304716,574.210476288572,165.35682808619498,-84.4411699424963,-195.505418426474,-600.383206635364,-191.44189347821498,319.00041281722997,3427,0,-1405,14519,4152,769,2606,-1351,678541,500,1.010694
524.911388397828,278.454618805554,-29.774133084807502,-402.62723824239197,-672.594862570695,-491.610522565315,-44.2138491574442,250.702463380527,3427,0,-1405,14519,4152,769,2606,-1351,678542,500,1.011935
-60.0639862465032,169.230499904486,241.61234767804902,-3.3142301034822594,-140.01636778275102,215.05212053924302,80.30869981099391,-160.588641416398,3427,0,-1405,14519,4152,769,2606,-1351,678543,500,1.0120790000000002
-290.914482748922,63.351206043968,274.082454403746,314.493893520994,416.723007652035,682.332510411274,57.192379224638,-377.925521537312,3427,0,-1405,14519,4152,769,2606,-1351,678544,500,1.012156
334.757308556116,286.727901139995,320.048775282688,499.133930381853,603.7761783221209,772.0897068352209,16.475054417213,40.482870023232,3427,0,-1405,14519,4152,769,2606,-1351,678545,500,1.012237
1239.79536158804,657.359546484542,278.972594383173,406.180913415446,343.271441276738,431.397347886814,9.0591813189676,703.094978694106,3427,0,-1593,14080,4895,759,1612,-1494,678546,500,1.012334
1167.56143462667,595.032372804475,391.43534809513903,812.239628290175,279.786899180268,286.735602991073,-26.089334886462897,798.919510477921,3427,0,-1593,14080,4895,759,1612,-1494,678547,500,1.012431
631.11048798915,407.254408290493,207.335684888181,578.1918147349501,261.80274698030604,392.30568939004996,-17.0730627392186,426.455307864468,3427,0,-1593,14080,4895,759,1612,-1494,678548,500,1.012521
433.245144718938,416.579675621237,-16.210451806779,-196.535149032512,384.151132145955,374.311251780251,-166.174372853769,183.83767369098499,3427,0,-1593,14080,4895,759,1612,-1494,678549,500,1.0126270000000002
407.764326064964,323.41628069116297,-61.071256004041096,-495.51274244877294,16.033411628392102,-10.1655364708276,-8.327104760333901,228.454029759043,3427,0,-1593,14080,4895,759,1612,-1494,678550,500,1.0128000000000001
414.385591038212,300.965845310362,25.8050585037563,27.115871909278198,-494.562397552596,-839.013965341146,30.2872599598486,257.59806772205,3427,0,-1593,14080,4895,759,1612,-1494,678551,500,1.012902
433.826615357713,233.071630755672,-104.047478239518,196.399476178573,-558.532971176406,-850.556985010626,87.29940633283701,379.78020427457494,3427,0,-1593,14080,4895,759,1612,-1494,678552,500,1.013014
269.164782065665,84.52892854460521,-179.605804429739,301.949121969636,59.0334222339443,-215.98740692925597,-43.2281304640928,251.98508234298802,3427,0,-1593,14080,4895,759,1612,-1494,678553,500,1.013125
310.266644432326,223.043067614897,-64.40798581636051,89.1637730806542,213.74964252580003,224.835696537397,-11.137069013027899,232.106809626101,3427,0,-1593,14080,4895,759,1612,-1494,678554,500,1.013239
77.5628347544407,48.776130480226094,-307.401124913013,-674.484525311127,-0.16696919800597199,154.32820120919502,-24.1649007753585,119.05551706557199,3427,0,-1593,14080,4895,759,1612,-1494,678555,500,1.013357
-135.344366618985,-190.891252197907,-506.604150826344,-1009.20912611461,46.961811535002205,-33.5606706778053,-111.560066182225,-8.48862195573747,3427,0,-1280,14446,5085,1401,1726,-241,678556,500,1.013492
40.9797924295708,82.2336198707344,99.64730462688021,-18.0315998378792,-6.868160328536759,42.2533689616248,-58.7350002170424,77.2282784819836,3427,0,-1280,14446,5085,1401,1726,-241,678557,500,1.0136040000000002
195.22551291374802,178.03893121623,200.45720255491298,185.646884230577,-375.04321406452794,-58.77409301290749,45.10750637447929,176.77792564535,3427,0,-1280,14446,5085,1401,1726,-241,678558,500,1.0137180000000001
25.5635862132767,-163.613758894033,-439.34689212788396,-728.208741838112,-475.263084432285,-384.118041340495,23.4331913185888,75.3344767319504,3427,0,-1280,14446,5085,1401,1726,-241,678559,500,1.013849
283.342772700329,292.015999936848,353.88817599147995,398.60617299142194,-386.394734340225,-1023.38289113331,42.7722194519592,219.616465116851,3427,0,-1280,14446,5085,1401,1726,-241,678560,500,1.013979
402.74224773063906,330.533517997945,383.943899776088,423.181806139532,-555.00753781505,-745.346718397806,102.61166461213699,310.413262781571,3429,0,-1280,14446,5085,1401,1726,-241,678561,500,1.014103
331.82308959472,143.970409443369,405.65925989614306,989.0256632206149,321.940633315971,146.363068080973,188.530969152518,332.48928084201196,3429,0,-1280,14446,5085,1401,1726,-241,678562,500,1.014224
203.145509000635,-150.574416876188,118.03243473707701,403.962592227239,967.3133246861689,1126.306224545,274.363678315014,316.514214679599,3429,0,-1280,14446,5085,1401,1726,-241,678563,500,1.01434
326.490924200392,174.687581674545,843.639032409876,880.554640915827,1287.58370215516,1559.3323368629801,303.46396818599897,369.294718215824,3429,0,-1280,14446,5085,1401,1726,-241,678564,500,1.070406
209.78410752452302,218.62569998286202,1001.66587523825,707.212956600619,1103.9497063619801,1492.9978185117402,288.464116994175,301.15832014312,3429,0,-1280,14446,5085,1401,1726,-241,678565,500,1.070438
157.132490568561,232.194161291351,508.763688837527,147.453392417054,667.172796045488,1047.8220222857801,177.24687524722,185.16741481993802,3429,0,-795,14987,4785,2302,2393,320,678566,500,1.0704630000000002
203.513094878581,349.927431981894,305.214508690522,-55.5230866954953,35.087356566073105,302.090541539481,73.3740189313539,135.211227356689,3429,0,-795,14987,4785,2302,2393,320,678567,500,1.070489
-75.6485112629016,24.9533938042587,-310.19695754779997,-589.861402670038,-637.7996547138611,-426.390256199287,-8.33589804399526,-18.4697798980633,3429,0,-795,14987,4785,2302,2393,320,678568,500,1.0705170000000002
-287.721266370761,-230.376149933436,-700.280668224324,-1089.67895805187,-1125.37191089572,-907.2580779968989,-148.649885602121,-256.686847321922,3429,0,-795,14987,4785,2302,2393,320,678569,500,1.070546
-200.004268611316,-92.9596033508424,-475.305392867303,-1090.31397452505,-1339.49355046952,-1145.5736986505801,-156.031315927103,-254.41367058327899,3429,0,-795,14987,4785,2302,2393,320,678570,500,1.070575
58.5432874961407,237.51882717968,60.9029019920854,-536.387862101285,-975.5096299001891,-993.307283602306,-160.333208014898,-72.29082318732979,3429,0,-795,14987,4785,2302,2393,320,678571,500,1.070605
328.76604437004397,503.24245952384103,371.78855061566003,-87.73892031740981,-495.78950607447797,-555.710700924392,-203.331193568127,124.454228788032,3429,0,-795,14987,4785,2302,2393,320,678572,500,1.0712300000000001
398.839645291737,485.39158769708604,261.403890309273,-59.0813844544464,-82.6591156051145,232.20422173431098,-12.2538750705426,179.61300126917197,3429,0,-795,14987,4785,2302,2393,320,678573,500,1.071268
566.403413815686,491.594502363703,408.773979103426,276.288199342496,190.165923647466,354.39814637345296,-49.14262141485229,204.263525721268,3429,0,-795,14987,4785,2302,2393,320,678574,500,1.071304
127.654716352234,-181.028038905933,66.3582758363336,219.897858142795,17.359416597464598,91.4661670941859,83.3680879204185,104.37992017518299,3429,0,-795,14987,4785,2302,2393,320,678575,500,1.07134
-771.6869773052459,-1362.9856970629198,-897.8441594392059,-335.65129590625304,-568.67573887881,-517.984642368509,204.28329321579102,-73.760153741925,3429,0,-816,15372,4680,1529,1878,191,678576,500,1.071377
-1499.7744235038099,-1911.02587018767,-1293.47266276891,-488.73866183223396,-565.034959867713,-527.531632659258,137.849961908709,-328.178707904532,3429,0,-816,15372,4680,1529,1878,191,678577,500,1.0714160000000001
-1426.69501741041,-1276.5453918688002,-760.9195876420711,-363.633659713436,-458.067865869234,-399.80171922571,177.577935950889,-424.382833015407,3429,0,-816,15372,4680,1529,1878,191,678578,500,1.071456
-621.087488100515,-481.001246138127,201.267526743468,-42.3211713665514,-611.7863663598549,-635.374835412251,-219.45178939518502,-403.100613837596,3429,0,-816,15372,4680,1529,1878,191,678579,500,1.0714970000000001
399.07078079914197,-112.746283426997,282.89687234570704,129.893526344327,-1136.2161104322302,-1259.51726294623,-380.96573063282995,-22.332195757888304,3429,0,-816,15372,4680,1529,1878,191,678580,500,1.0715400000000002
769.4824702210029,297.620474081719,-244.67697664268798,-719.631141685182,-1174.07283878516,-1254.7246711944501,-359.585945182596,166.857828490436,3429,0,-816,15372,4680,1529,1878,191,678581,500,1.071585
607.559060657688,879.737804849516,193.312183159404,-342.17341570713296,-623.1129604995659,-685.4948166476099,-317.590367685189,14.8112533634994,3429,0,-816,15372,4680,1529,1878,191,678582,500,1.07163
349.25300501904,722.1602345159039,430.056209884002,366.470350738004,430.78291438726603,25.715430129203,-313.869122598087,-50.868738037301206,3429,0,-816,15372,4680,1529,1878,191,678583,500,1.071676
312.783109900163,458.20378922263603,136.147672319668,272.247043150826,615.8854748611631,302.71979123132803,-307.20079528330797,-20.3268906887388,3429,0,-816,15372,4680,1529,1878,191,678584,500,1.071723
64.09466960249121,-83.70458738994779,-162.045898376266,46.0276975617453,458.791117055109,350.67268862959503,-291.65997232188204,-30.909244587644896,3429,0,-816,15372,4680,1529,1878,191,678585,500,1.071774
-68.20363162821741,-203.456478253123,198.369475626387,303.604733124637,415.93385650397994,241.001088954741,-240.526912035886,-29.4332799228141,3429,0,-1215,15632,4899,205,625,227,678586,500,1.071831
-231.640766281082,-249.161468080012,574.151188665535,706.021476397524,378.564203496324,-99.8470352661097,-277.472628758987,-85.6118763368577,3429,0,-1215,15632,4899,205,625,227,678587,500,1.0718830000000001
-79.99776085637859,87.3126443872461,436.41958530945703,294.47573976250703,314.815214883478,-291.347833733191,-227.490161769383,-63.5733557557687,3429,0,-1215,15632,4899,205,625,227,678588,500,1.071935
-6.763771830737821,26.0579748691525,-122.945086452411,-516.396974243195,-593.8281221164799,-768.6321946723621,-203.960345507716,-50.751270784647204,3429,0,-1215,15632,4899,205,625,227,678589,500,1.0719880000000002
84.43712861169479,67.9230874385685,-101.928083389881,-438.651681350195,-601.698262938327,-611.878508522874,-128.04781093477501,-3.30619492311962,3429,0,-1215,15632,4899,205,625,227,678590,500,1.072043
249.026786499948,298.074524161988,-134.83183725760298,-433.409781112481,-530.940561039111,-545.501748780371,-168.352803694666,11.7466438921401,3429,0,-1215,15632,4899,205,625,227,678591,500,1.0721040000000002
-164.821534347167,-78.8575619354378,-218.994211640325,-338.779172213312,-354.714787294448,-280.189487219555,-72.9983759610914,-115.49467332009199,3429,0,-1215,15632,4899,205,625,227,678592,500,1.0721660000000002
-516.851785559498,69.6435581188416,120.24517930811301,-0.855418142629787,45.89837762370011,237.213387378026,30.111862726043896,-226.23629795887996,3429,0,-1215,15632,4899,205,625,227,678593,500,1.072228
-98.28728604898791,392.18058138282504,415.493639452849,273.22365997085603,277.538818603236,472.87799963296897,-10.172420525632301,-74.23085339472159,3429,0,-1215,15632,4899,205,625,227,678594,500,1.1175300000000001
126.24231606995501,53.8081420152448,142.59090114967,382.882470155484,360.194982834102,346.83871467609396,-103.615540702769,-24.4890882598702,3429,0,-1215,15632,4899,205,625,227,678595,500,1.117548
208.838599941315,-198.853677573032,-166.659320756444,348.057394884236,331.49898322354403,42.4917025782634,-143.219141699839,22.644978602184,3429,0,-1711,15741,4977,-1276,-168,456,678596,500,1.1175620000000002
502.063200282748,341.67579303740104,359.72449430485705,590.9087661262311,602.265959066048,110.62352541077401,-89.90415711770771,208.314034205163,3429,0,-1711,15741,4977,-1276,-168,456,678597,500,1.1175760000000001
555.09475173612,596.1991170533,487.984773579636,222.531546457001,-43.624814557289895,-217.61082924122502,-30.295209682371897,310.169119659695,3429,0,-1711,15741,4977,-1276,-168,456,678598,500,1.117591
-382.329017282173,-466.21197313407896,-382.10330192698194,-518.877759428171,-693.3730610221679,-649.062311594142,-175.147447118652,-181.53269444603902,3429,0,-1711,15741,4977,-1276,-168,456,678599,500,1.117607
-638.246410375432,-797.852755292668,-626.181932101143,-657.741590195743,-488.30833261803497,-301.965833966271,-123.409653016948,-343.125813316437,3429,0,-1711,15741,4977,-1276,-168,456,678600,500,1.1176220000000001
-803.493239673175,-1228.6703772343499,-702.2261023918401,-528.521506445948,-382.178648583213,-210.609798504622,-149.825319659139,-343.688119418803,3429,0,-1711,15741,4977,-1276,-168,456,678601,500,1.11764
-832.489225255646,-937.568753603147,-417.556943620904,-263.757379091519,-108.42243241841801,80.35040981776551,-135.161636701378,-332.304964687326,3429,0,-1711,15741,4977,-1276,-168,456,678602,500,1.117658
171.411930389557,564.292379892198,348.521882372326,184.535068358004,374.581121407769,410.405095667113,-154.463142121967,13.841572304372699,3429,0,-1711,15741,4977,-1276,-168,456,678603,500,1.1176780000000002
661.9216942982171,1128.1610874593,707.521865019924,485.116360509885,743.219971365848,572.35387927515,-270.904689242656,128.09705084085,3429,0,-1711,15741,4977,-1276,-168,456,678604,500,1.117698
749.775324163522,1128.4461249199198,724.137226288673,501.68856325018,854.8146109912201,779.9576417427741,-321.287998442887,147.508551193052,3429,0,-1711,15741,4977,-1276,-168,456,678605,500,1.11772
535.397315549955,736.1535515243891,380.780535457889,342.141041611409,878.5262140499541,1206.54370592139,-244.823747490474,113.00955800665501,3429,0,-1771,15764,4888,-2141,-1075,748,678606,500,1.1177400000000002
204.425863886194,421.274456966436,506.76994303788496,666.539444269496,741.914093603613,854.620697618462,-161.35479362309,58.0682767778635,3429,0,-1771,15764,4888,-2141,-1075,748,678607,500,1.117763
-80.6831504205766,222.604319709702,481.110447234008,474.08758665245796,854.4216784035091,659.102094764821,170.508460933575,151.87901018280502,3429,0,-1771,15764,4888,-2141,-1075,748,678608,500,1.117785
456.61832642881205,864.134520828607,926.7882443808479,898.15563559896,458.680165128782,-250.49183123267701,97.7410252150148,292.21211448393296,3429,0,-1771,15764,4888,-2141,-1075,748,678609,500,1.117809
541.000082950079,702.622479847516,424.79266261751803,23.0351047612494,-920.9149402669859,-1401.12863509229,29.8534470714512,354.26283599447896,3429,0,-1771,15764,4888,-2141,-1075,748,678610,500,1.117833
484.188645043032,521.2373897049109,203.323221657192,-581.7901986832151,-1543.89854215903,-1263.35878867225,133.736826000037,382.73115335777396,3429,0,-1771,15764,4888,-2141,-1075,748,678611,500,1.117858
450.923827279446,469.296479548211,294.660314813606,-239.949490718165,-733.0159528051739,-269.65678497834597,104.149425551877,323.379275529413,3429,0,-1771,15764,4888,-2141,-1075,748,678612,500,1.117884
192.476318750705,164.580485784449,86.7213624251308,-53.4176505703945,-213.46096299481002,236.635899386485,55.0524958285387,177.306214230019,3429,0,-1771,15764,4888,-2141,-1075,748,678613,500,1.117911
-49.832592043647296,55.45630721899221,257.011806723895,335.49864182143904,426.81381318834605,714.7343874470099,106.93489439831998,83.73139199009171,3429,0,-1771,15764,4888,-2141,-1075,748,678614,500,1.117938
-13.8459170929564,99.73585742432621,225.42260852328,176.959584751748,-454.399378398142,42.038710915134295,66.74054168735171,99.64017529855481,3429,0,-1771,15764,4888,-2141,-1075,748,678615,500,1.117968
272.115968185331,448.53864733700203,796.429292343557,1763.4243674850102,-1110.9348567570598,-831.938573869877,-70.3416247165296,200.808563476894,3429,0,-1294,15576,4660,-1857,-1121,684,678616,500,1.117998
243.453550370788,167.901642233133,-36.93316975748171,-221.64072974550098,62.30887939271629,247.804831682239,205.701786337886,322.568118584692,3429,0,-1294,15576,4660,-1857,-1121,684,678617,500,1.118028
-114.784252090903,-541.517035685945,-790.325058645103,-1162.32430305623,-413.813721315004,-34.4588326902594,287.490659836447,275.84513178234903,3429,0,-1294,15576,4660,-1857,-1121,684,678618,500,1.166673
-549.037388968281,-1369.25489630527,-1314.6597877387,-1105.41887508827,-1234.7667882526,-999.874965027324,164.528902117279,110.445238032029,3429,0,-1294,15576,4660,-1857,-1121,684,678619,500,1.166735
-541.591492196632,-1306.14318932348,-1282.85344741435,-1074.02436158102,-1315.01597931795,-1190.9925262765,127.564648319385,83.24973655678329,3429,0,-1294,15576,4660,-1857,-1121,684,678620,500,1.1667830000000001
321.398215761088,339.269455257221,-142.373122561141,-244.007752662612,-733.3701662294039,-589.648427881184,94.03823190793631,273.027270640596,3429,0,-1294,15576,4660,-1857,-1121,684,678621,500,1.166835
520.707144507527,869.012764324783,136.20509258168698,-17.613202003907602,-127.15919197406001,111.533921719179,-104.035084161325,194.100181814516,3429,0,-1294,15576,4660,-1857,-1121,684,678622,500,1.1668880000000001
237.527256939531,460.96637477981903,132.05642358353398,735.6216310611929,1348.96447911524,1290.89133002912,-158.518842127174,88.32620994839822,3429,0,-1294,15576,4660,-1857,-1121,684,678623,500,1.166943
228.173339689034,747.6574306213299,988.538659666083,1272.72211336455,1886.39259883654,1700.2233128732198,-114.92886208358699,57.4068844330031,3429,0,-1294,15576,4660,-1857,-1121,684,678624,500,1.1669990000000001
-161.67754417102,80.71756356209521,429.129274021951,337.289685357653,1130.13397168595,1409.74827733182,0.66476117935963,6.99649628333282,3429,0,-1294,15576,4660,-1857,-1121,684,678625,500,1.167072
-628.1408903862471,-850.1833223408321,-115.36117031238999,468.88409027020697,920.891770048998,1179.48887422238,115.80859168880899,-40.797157680732205,3429,0,-799,15058,4491,-1328,-89,263,678626,500,1.167211
-762.805701142293,-902.879170842352,-69.7185213089688,364.29265014542,199.46584742888803,121.286747162114,236.46620675642,49.1446142630884,3429,0,-799,15058,4491,-1328,-89,263,678627,500,1.167286
-936.5025125176179,-758.1197778988859,55.85033409623429,294.780411285145,11.739175741386099,-458.632236280595,214.495821947057,43.555384504492395,3429,0,-799,15058,4491,-1328,-89,263,678628,500,1.167356
-525.658168038033,-404.46416129369794,397.479351693066,678.279221512552,771.409053146781,92.63574219518341,19.8795317753102,-10.6593243806856,3429,0,-799,15058,4491,-1328,-89,263,678629,500,1.167427
142.425264408113,-27.3841705058003,408.877792361192,582.9453802377681,729.546257458511,136.16782342875402,-2.37659031472867,134.55266462021999,3429,0,-799,15058,4491,-1328,-89,263,678630,500,1.1675030000000002
997.928217240318,1250.2908462421,901.091049560928,463.93552432436303,181.36701309823502,-185.553943035309,-18.3922109291889,317.69584413361696,3429,0,-799,15058,4491,-1328,-89,263,678631,500,1.16758
1392.54158368366,1698.08322676271,1044.2798158417,152.61311715931498,-734.6161274393089,-640.387811296154,135.72350407776,628.720262484625,3429,0,-799,15058,4491,-1328,-89,263,678632,500,1.1676600000000001
884.8195651380231,896.046693579294,529.766952421167,190.996167749923,3.5307896021404304,295.76564341888303,166.672278212849,525.418783039437,3429,0,-799,15058,4491,-1328,-89,263,678633,500,1.1677410000000001
525.5088952862719,583.970151846996,444.994367022067,613.472214557725,743.390927579982,710.4251327054809,73.0097456808435,307.118386585964,3429,0,-799,15058,4491,-1328,-89,263,678634,500,1.1678250000000001
392.270037918293,722.953682970838,282.75699284055696,134.28924266097602,-149.798763704981,366.618875700864,98.769797432411,206.806606925908,3429,0,-799,15058,4491,-1328,-89,263,678635,500,1.167912
467.378880779783,951.5979070091851,425.62713279866097,-208.734281872545,-541.911665657593,491.171140518738,17.8734353412292,155.439211250981,3429,0,-841,14591,4576,-752,390,237,678636,500,1.168002
337.813454141346,646.689015825978,251.67886672110802,-193.692324099626,189.851640608191,1184.55911333836,-25.244795992388397,124.582110061892,3429,0,-841,14591,4576,-752,390,237,678637,500,1.168106
