sep=;
CH1;CH2;CH3;CH4;CH5;CH6;CH7;CH8;Vbat;Trigger;AccX;AccY;AccZ;GyX;GyY;GyZ;N;fs;Timestamp
-98.3366307023971;-116.027304974152;-39.1304173608078;-55.7822879277519;-17.9981680376222;-322.321601298638;-77.7646138905548;-83.8946399535052;3427;0;-367;15015;4983;-762;539;236;504950;500;13:24:28.401804
157.464359972917;112.105295729241;55.3930471120402;-155.215447603579;-338.095003496273;-469.751892214641;-47.0273095042212;50.9592730627628;3427;0;-367;15015;4983;-762;539;236;504951;500;13:24:28.401820
124.85959278731;71.06061541487;26.5031535446178;-187.813559543574;-528.969230362389;-562.654117419152;-53.4406145755784;-6.67213088995777;3427;0;-367;15015;4983;-762;539;236;504952;500;13:24:28.401832
108.557030239317;78.2255274711642;86.4164110244019;6.57692802321981;-184.79109504685;-318.487879486638;-45.8592869310523;-21.8462384499144;3427;0;-367;15015;4983;-762;539;236;504953;500;13:24:28.401844
96.4287774729892;96.2291055056266;112.784464728436;91.2150449652981;140.190059394867;87.6036304088775;-122.839268195035;-57.6986692106584;3427;0;-367;15015;4983;-762;539;236;504954;500;13:24:28.401857
181.835332522809;224.309919789084;308.749427845003;394.410565141501;840.718484867946;784.756894983351;-189.909401195066;-21.5513853403972;3427;0;-367;15015;4983;-762;539;236;504955;500;13:24:28.401870
240.330808456347;291.157706412952;414.805429383763;521.886252898577;964.042979108926;865.994467318058;-203.465970804391;1.22664143599104;3427;0;-602;14793;5149;-353;56;275;504956;500;13:24:28.401884
288.148911713215;343.24683901656;481.758389941882;598.062258053222;815.490609480417;657.003417212283;-117.470638060244;23.7201720740413;3427;0;-602;14793;5149;-353;56;275;504957;500;13:24:28.401912
266.790072976699;283.372442151071;368.982023085468;433.770674167579;508.768191713141;351.221807425376;56.8925737440004;57.8568322039209;3427;0;-602;14793;5149;-353;56;275;504958;500;13:24:28.401928
168.175283231336;110.947553213569;74.7501965261763;-87.228689643438;-244.31095463282;-227.016499848804;63.1205075783655;23.9901828593574;3427;0;-602;14793;5149;-353;56;275;504959;500;13:24:28.401943
137.366380643944;62.9023158431519;1.82018818822689;-250.926045710308;-408.622114593978;-397.54521136207;-24.1439585381886;-17.4044571042759;3427;0;-602;14793;5149;-353;56;275;504960;500;13:24:28.401960
128.799243264337;65.1419051993871;47.0629066113615;-128.357897609269;-231.004126961227;-434.754284844501;-38.7680019281106;3.33078409347218;3427;0;-602;14793;5149;-353;56;275;504961;500;13:24:28.401977
-6.86548600107199;-41.9611194219906;-17.5732952272519;-71.9088315648551;-43.6701836386928;-267.763654440758;-24.3892597782542;-85.5051341912476;3427;0;-602;14793;5149;-353;56;275;504962;500;13:24:28.402373
83.7508706583467;38.1055402730126;44.8041354465531;-22.1243481506826;62.8201233388972;-58.1292864031857;17.6357758140075;-18.2039109437028;3427;0;-602;14793;5149;-353;56;275;504963;500;13:24:28.402394
41.0640852336073;-0.0912144050234929;-21.7924201262649;-142.891310474282;-119.214541332913;-62.7784727098187;-3.47069737996208;-34.2233606285881;3427;0;-602;14793;5149;-353;56;275;504964;500;13:24:28.402421
-2.08499237647629;-55.6984041425167;-111.406385311042;-240.282132060704;-173.759280729806;87.6572817212436;-10.4010125531349;-30.1664939936018;3427;0;-602;14793;5149;-353;56;275;504965;500;13:24:28.402439
55.6732241754071;33.4842146552401;11.7710612333613;-89.9982500870246;56.595377861755;400.179117921623;-24.2005990685429;3.65328307042364;3427;0;-673;14615;5289;77;-334;58;504966;500;13:24:28.402458
120.657952295034;137.451763331192;177.13466386334;155.799579231272;342.702217911312;536.864429988549;-51.7393572407309;53.9442680990323;3427;0;-673;14615;5289;77;-334;58;504967;500;13:24:28.402477
243.457459356432;330.546502395184;362.288703580154;265.359814492462;278.405309411872;257.429579082178;-46.1385591658764;112.548828286352;3427;0;-673;14615;5289;77;-334;58;504968;500;13:24:28.402498
193.789556304167;226.074295185972;263.886161698028;179.76094565427;113.53828661592;-149.70034658676;-129.049311654293;5.45524708740413;3427;0;-673;14615;5289;77;-334;58;504969;500;13:24:28.402518
-10.2901249714778;-15.2328835169319;140.86469755834;239.31717870367;345.242913016933;-131.385555703426;-80.7388637159602;-69.4950475522783;3427;0;-673;14615;5289;77;-334;58;504970;500;13:24:28.402540
-33.940307146695;-16.0207019589143;132.661053437507;262.3454290269;342.497624944197;-186.831546917674;-80.7283620887902;-76.9256488784449;3427;0;-673;14615;5289;77;-334;58;504971;500;13:24:28.402562
25.1871227538795;-11.8293223438086;64.9298736900091;76.3890956139658;-30.8941794949933;-283.315152292256;-32.0212567911367;24.0579042404424;3427;0;-673;14615;5289;77;-334;58;504972;500;13:24:28.402585
48.7940717315651;-27.5647454487626;-63.5703075723723;-278.172404578741;-548.68386226549;-372.620294638211;-45.5334103840287;61.1734329648316;3427;0;-673;14615;5289;77;-334;58;504973;500;13:24:28.402608
-7.39539537919336;-90.8024073427077;-192.450799624203;-506.064497181796;-670.437410615385;-212.35902155051;-94.649906270206;-12.4827675096458;3427;0;-673;14615;5289;77;-334;58;504974;500;13:24:28.402632
96.1165166021383;40.5337184676901;-17.6154354753671;-242.167689860478;-151.66536177462;193.352091601118;-162.030509970034;26.0809107912937;3427;0;-673;14615;5289;77;-334;58;504975;500;13:24:28.402655
318.57531892322;324.258824816556;342.855353128165;255.948481748695;459.015184211719;588.026692093932;-223.594588329666;151.611662015435;3427;0;-487;14594;5282;499;-502;-249;504976;500;13:24:28.402678
305.706966942729;342.079082614044;404.662296002381;322.510816775408;453.878927296901;587.207308015088;-405.618139326514;69.8633793191984;3427;0;-487;14594;5282;499;-502;-249;504977;500;13:24:28.402707
284.043602744903;298.051114445901;300.719646561542;74.2054560074757;-13.303015384241;234.588936129352;-264.372650649282;73.6016477729427;3427;0;-487;14594;5282;499;-502;-249;504978;500;13:24:28.402734
110.59644255045;106.493071122793;83.7823948394507;-179.945738565002;-536.262619089393;-162.328770230059;-97.0557432970963;-19.103043250856;3427;0;-487;14594;5282;499;-502;-249;504979;500;13:24:28.402767
-21.9329738347151;-61.8083348978544;-56.9118446705397;-251.048001282907;-666.103253451583;-410.190258708317;188.418847263674;-28.1683636603411;3427;0;-487;14594;5282;499;-502;-249;504980;500;13:24:28.402796
-99.1442264815851;-150.49338773964;-101.440989815979;-116.540768740932;-271.585785244068;-326.010385254165;238.778205929731;-24.2006712052971;3427;0;-487;14594;5282;499;-502;-249;504981;500;13:24:28.402823
-44.2128800095816;-103.909305294277;-70.879112110706;-27.4335031920928;48.4534330425085;-263.737617237726;96.7062860938022;-4.38163669232745;3427;0;-487;14594;5282;499;-502;-249;504982;500;13:24:28.402853
-25.7406380976026;-81.7527908839984;-122.183299993398;-217.686875584564;-91.6353856632486;-178.382243052241;31.9294588288758;-11.6410764632747;3427;0;-487;14594;5282;499;-502;-249;504983;500;13:24:28.402882
-23.3980049329111;-33.0386062967591;-72.4736424516886;-212.769078666228;-87.8654867115547;45.0387055295287;32.553808772238;-8.87194212467875;3427;0;-487;14594;5282;499;-502;-249;504984;500;13:24:28.402925
3.75994877127232;19.0435253535397;17.3616903091315;-45.9237034676189;148.397410921752;332.248846152215;16.2753980471753;-27.0057120587444;3427;0;-487;14594;5282;499;-502;-249;504985;500;13:24:28.402975
160.759373802284;214.567727865651;285.942570601357;294.733029000665;514.866078360879;681.446576493559;40.9432282146881;69.3688509787899;3427;0;-172;14702;5195;580;-372;-52;504986;500;13:24:28.437094
222.379760318581;287.398540634662;361.352702406817;373.743850473664;646.189013207506;858.31373104162;143.807360636361;128.762317800545;3427;0;-172;14702;5195;580;-372;-52;504987;500;13:24:28.437107
241.484574129427;276.827638593502;350.344769124407;356.353693154175;473.747790092952;611.590103806695;120.169270724873;157.596649434301;3427;0;-172;14702;5195;580;-372;-52;504988;500;13:24:28.437118
131.154320160946;159.053285500268;214.248525120202;213.954689469829;232.885411000636;220.849074945552;-104.908840045158;43.9590022114571;3427;0;-172;14702;5195;580;-372;-52;504989;500;13:24:28.437128
116.602602243249;121.24939406768;155.368139100028;62.3943367423781;-17.8969589662738;-132.227485358017;-91.6542307274649;33.10083797283;3427;0;-172;14702;5195;580;-372;-52;504990;500;13:24:28.437140
103.221775385027;86.8940730283502;61.4420796124032;-25.6635353170277;-126.422421293741;-291.08416041662;9.88187198084779;66.1018062828807;3427;0;-172;14702;5195;580;-372;-52;504991;500;13:24:28.437152
148.635026867647;109.607904151315;45.2050053685671;-58.9584501502104;-236.568915686454;-290.933729185141;115.118353308237;113.594265171792;3427;0;-172;14702;5195;580;-372;-52;504992;500;13:24:28.437164
40.4384073479741;-23.9843770705629;-93.0618689818075;-251.828421861544;-590.785969930759;-360.336002226104;94.8178586246795;20.3709646251518;3427;0;-172;14702;5195;580;-372;-52;504993;500;13:24:28.437176
100.540716775402;49.7980395579943;25.7943540277192;-100.431267270091;-388.033514558105;-82.0400036504725;32.0360630765208;43.5855895847781;3427;0;-172;14702;5195;580;-372;-52;504994;500;13:24:28.437189
161.876027239719;169.363195740036;192.852623324841;254.784686082363;335.906516147021;434.264247653075;21.7118253137451;48.6211713961093;3427;0;-172;14702;5195;580;-372;-52;504995;500;13:24:28.437203
192.62665400203;194.016448467155;220.68014564598;313.39336289803;481.376313984976;648.961299782153;100.952828186972;87.3793357495451;3427;0;25;14856;5132;642;-116;135;504996;500;13:24:28.437218
315.40411921902;333.628792493837;307.776281827246;336.476730042312;330.861726443633;484.321952829836;143.425456651777;186.268589925254;3427;0;25;14856;5132;642;-116;135;504997;500;13:24:28.437232
360.117523532303;407.884831240866;409.672642548219;471.551965132559;537.974926510302;627.793446517549;231.074396378826;215.347131453105;3427;0;25;14856;5132;642;-116;135;504998;500;13:24:28.437247
118.05949812429;176.11746370676;219.112807254656;301.829289236746;426.469310556713;438.53115275153;79.1206189346849;47.2923334473744;3427;0;25;14856;5132;642;-116;135;504999;500;13:24:28.437263
-188.555127682135;-165.055872456636;-154.906500591198;-61.5537779244478;-66.2528915211442;-131.970934830955;-111.682287811651;-137.546860301984;3427;0;25;14856;5132;642;-116;135;505000;500;13:24:28.437279
-126.628521732462;-224.707008245168;-334.443504084717;-290.215803410625;-356.057702344493;-418.088302675169;-187.804770146438;-121.323162415996;3427;0;25;14856;5132;642;-116;135;505001;500;13:24:28.437296
35.8918439625704;-79.8864281282295;-197.701535739237;-270.555620790255;-456.398958324105;-330.9426685418;-56.2700541827944;6.00227979524061;3427;0;25;14856;5132;642;-116;135;505002;500;13:24:28.437314
-41.1240851479815;-154.501643211348;-254.452452938538;-376.342367927078;-683.662534952455;-377.040565547417;-47.6127592730336;-43.1618765203748;3427;0;25;14856;5132;642;-116;135;505003;500;13:24:28.437332
-96.3079675630142;-170.54173095047;-193.222631003475;-116.088419508131;-150.82659750327;-48.8994070128538;-71.8553344376269;-95.6853712496813;3427;0;25;14856;5132;642;-116;135;505004;500;13:24:28.482607
-170.673870560538;-228.112165960134;-145.668557541328;32.6017330061295;226.299353211012;286.077109602164;-38.1550693392637;-157.486670648446;3427;0;25;14856;5132;642;-116;135;505005;500;13:24:28.482638
26.1945786962751;19.131639327039;52.3468182877405;169.496327078377;319.464238336717;537.359572379733;-16.7991057204781;-45.5981751127401;3427;0;46;14916;5069;657;202;-131;505006;500;13:24:28.482663
157.003779638064;164.906274971901;151.49396996107;166.544022905815;141.154175494448;443.634261983098;-58.3151881896192;15.2075513802702;3427;0;46;14916;5069;657;202;-131;505007;500;13:24:28.482689
364.679254693881;375.435033616377;378.584062296548;304.734024459001;44.5649821638362;338.143270673696;74.5950616388582;189.534172115847;3427;0;46;14916;5069;657;202;-131;505008;500;13:24:28.482716
295.473034575407;303.083566134679;333.518198999227;320.943078359327;260.222814904875;241.906336686807;18.0245781886042;110.258588021155;3427;0;46;14916;5069;657;202;-131;505009;500;13:24:28.482744
317.550369129371;299.198467621463;317.820667911554;342.899602934951;363.865250592877;43.5120892174309;175.815279996779;172.086883323849;3427;0;46;14916;5069;657;202;-131;505010;500;13:24:28.482772
351.264503075014;301.312625124934;329.137845720048;333.7623510423;280.368588319106;-65.9504263247363;216.354053145333;221.211371056619;3427;0;46;14916;5069;657;202;-131;505011;500;13:24:28.482802
249.394346066343;184.139006827143;197.201319678221;173.67667497709;51.8229153165012;-183.980868556537;28.8101992243901;119.658034056542;3427;0;46;14916;5069;657;202;-131;505012;500;13:24:28.482832
48.418167349475;-77.6592950030463;-61.2886127128731;-13.2353349117038;3.01608535548439;-85.8809529977152;-150.430292443663;-0.506742618512362;3427;0;46;14916;5069;657;202;-131;505013;500;13:24:28.482866
-38.7505722212372;-166.254644915694;-152.580027453369;-96.450580552977;-22.325207346119;57.7033523699502;-288.670453646337;-119.17090269539;3427;0;46;14916;5069;657;202;-131;505014;500;13:24:28.482901
-89.0543774997059;-201.068556311424;-149.31327471137;-62.3545501296758;68.9191481421003;282.967025712249;-218.473744698393;-147.905111330212;3427;0;46;14916;5069;657;202;-131;505015;500;13:24:28.482936
-90.0329361970944;-159.91511214932;-101.362876202562;-8.80693310155766;162.002595092054;397.088199927355;-115.357695357874;-150.437286343426;3427;0;-73;14941;4993;59;260;-214;505016;500;13:24:28.482972
312.465246800974;321.954036847688;294.797646862338;267.665249045851;316.523292190337;419.337758961599;-1.59986016678158;76.6234524877509;3427;0;-73;14941;4993;59;260;-214;505017;500;13:24:28.483010
93.8021510218387;-53.8475041772472;10.251951101236;77.5886277015379;191.846732092323;217.700105138007;139.55609194201;115.015136179398;3427;0;-73;14941;4993;59;260;-214;505018;500;13:24:28.483048
-26.7343554504914;-173.536180030322;-186.272356216214;-224.398216116359;-223.441821585817;-195.083523780224;107.025731818459;28.7045940530952;3427;0;-73;14941;4993;59;260;-214;505019;500;13:24:28.483089
-226.258022910508;-389.110531884711;-488.653539016959;-614.029755207244;-887.934605954797;-709.035581354401;72.9099137735902;-118.141512577306;3427;0;-73;14941;4993;59;260;-214;505020;500;13:24:28.483135
-313.969106451666;-516.515383392922;-682.896108386107;-859.647075159533;-1208.20824290358;-999.904989846866;-103.882196534192;-209.486896712217;3427;0;-73;14941;4993;59;260;-214;505021;500;13:24:28.483180
-284.304237049917;-488.27828825172;-639.168351041852;-775.220917527593;-803.968905881105;-839.917018199572;-166.169152817805;-220.183654758846;3427;0;-73;14941;4993;59;260;-214;505022;500;13:24:28.483226
-350.398306416842;-580.617956804344;-707.261165869539;-901.499110657256;-978.137701136002;-911.44938747969;-229.659253929392;-262.538076306577;3427;0;-73;14941;4993;59;260;-214;505023;500;13:24:28.483274
-245.72264405858;-441.232588201063;-566.782929999405;-698.228724139655;-737.688426853507;-321.211439391365;-90.6169970814371;-157.278834041907;3427;0;-73;14941;4993;59;260;-214;505024;500;13:24:28.483322
-47.9386163767194;-72.0276462419424;29.086562700104;198.153045741376;332.546481987694;552.835982006742;-51.6884022249142;-107.983925829642;3427;0;-73;14941;4993;59;260;-214;505025;500;13:24:28.483370
138.433683156618;98.7890302387532;184.240422400529;301.254860976071;358.888546218164;548.406261314754;9.61225140333408;48.0242307764711;3427;0;-255;14982;4983;-409;95;-84;505026;500;13:24:28.483419
189.31116555215;155.17537268193;183.418846430955;180.45817339918;63.9075272424379;406.873356672004;67.1657772444887;102.707672778866;3427;0;-255;14982;4983;-409;95;-84;505027;500;13:24:28.483473
271.345752772555;214.826469651656;235.268887121929;209.231089679641;126.381347939197;347.585376461386;149.835352952592;188.504089058144;3427;0;-255;14982;4983;-409;95;-84;505028;500;13:24:28.530139
111.858661397768;47.1500744035002;128.456545113819;227.699023508409;449.42531982722;257.224256840069;-66.6571966996999;31.7413534258958;3427;0;-255;14982;4983;-409;95;-84;505029;500;13:24:28.530162
62.6771729791071;-28.9970919704065;18.0042859768728;7.42829289173824;-101.110451226239;-243.429499997175;-181.068982220488;-1.82795574958436;3427;0;-255;14982;4983;-409;95;-84;505030;500;13:24:28.530179
20.0698731267184;-93.2609991643112;-101.006833798368;-147.486011177622;-346.643377253495;-526.153672563494;-195.664028041647;-52.8654185791966;3427;0;-255;14982;4983;-409;95;-84;505031;500;13:24:28.530196
-15.0499176365556;-109.018909711973;-121.140665452811;-125.560641177872;-159.798138858518;-476.396574642858;-123.613210917509;-80.4072960648919;3427;0;-255;14982;4983;-409;95;-84;505032;500;13:24:28.530213
-181.898803331074;-241.837822201196;-233.436720765778;-239.053639406455;-201.854073683207;-369.604860559804;-136.925735987141;-188.095529517392;3427;0;-255;14982;4983;-409;95;-84;505033;500;13:24:28.530234
-225.41992700522;-273.613999658264;-210.165536706336;-173.239394389559;-250.333126208279;-214.444928493234;-145.097913332691;-217.913128297427;3427;0;-255;14982;4983;-409;95;-84;505034;500;13:24:28.530251
-152.120408170362;-139.026998726767;-22.2148315588711;75.6028320414189;152.963851101231;7.35429981781635;-234.649540423998;-202.631238419446;3427;0;-255;14982;4983;-409;95;-84;505035;500;13:24:28.530269
-129.417586927419;-134.308512503514;4.39024485950358;156.372711834731;439.918941935175;379.420376671012;-219.724043668248;-176.601027449593;3427;0;-318;15039;4968;-361;-4;112;505036;500;13:24:28.530287
55.9811925734975;66.1243363112444;229.412165396614;381.214773517742;607.998760547489;719.000376254553;-147.339029528317;-89.2766794998897;3427;0;-318;15039;4968;-361;-4;112;505037;500;13:24:28.530307
265.893697840947;302.80772548425;457.577528967289;625.096509264346;942.892642411578;893.324655238306;-37.0960615130607;84.41035234218;3427;0;-318;15039;4968;-361;-4;112;505038;500;13:24:28.530327
393.674718605937;382.492900873069;453.320261230576;466.422164534277;529.251473340497;426.458098675124;-41.5154089208809;172.450411857222;3427;0;-318;15039;4968;-361;-4;112;505039;500;13:24:28.530760
420.469959816633;350.862138822442;355.68622267223;210.336390748824;-133.64402817667;-249.244237055304;-103.515223777737;216.653186948737;3427;0;-318;15039;4968;-361;-4;112;505040;500;13:24:28.530780
195.496282241569;70.1822950959904;15.7896282323636;-208.515309223294;-726.64389417012;-778.368009032216;-161.755495862744;88.3773594711674;3427;0;-318;15039;4968;-361;-4;112;505041;500;13:24:28.530806
102.511383275152;-13.2146967017325;-50.5577746884665;-301.14823370814;-574.850234615675;-465.113018054166;-46.3502750261105;29.2746978986543;3427;0;-318;15039;4968;-361;-4;112;505042;500;13:24:28.530824
-47.9473887282074;-189.975619564997;-209.4868096438;-314.106603767403;-242.080279908318;-142.832951775054;-119.2086965458;-78.7783624448348;3427;0;-318;15039;4968;-361;-4;112;505043;500;13:24:28.530843
-106.094465402537;-274.090818417142;-345.554276191513;-433.221680908784;-320.892375551222;-88.9083693575813;96.040076704172;-77.1606399860466;3427;0;-318;15039;4968;-361;-4;112;505044;500;13:24:28.530863
63.0629024474765;-48.0897553813411;-116.197861006018;-161.283732175594;40.5281651901896;206.820392534253;337.415735195973;61.576894357102;3427;0;-318;15039;4968;-361;-4;112;505045;500;13:24:28.530888
217.186686964822;182.047156504006;179.861189588672;180.801855139638;329.859012423491;562.44779331563;307.452403789619;115.104795383872;3427;0;-255;15000;5026;-128;-61;106;505046;500;13:24:28.530911
405.152146052424;469.921539891628;577.553155881469;647.795460615016;739.782090609311;788.40008425666;315.613545938861;219.63454010943;3427;0;-255;15000;5026;-128;-61;106;505047;500;13:24:28.530934
429.767533236212;540.527112367912;687.038466346799;843.601660811109;1009.40760409366;793.869356947485;246.148181287979;209.563243144541;3427;0;-255;15000;5026;-128;-61;106;505048;500;13:24:28.530957
205.622097348154;281.299750445876;421.480988565134;571.856312617281;707.203608582087;282.491120068473;12.5787487347261;37.6288496773923;3427;0;-255;15000;5026;-128;-61;106;505049;500;13:24:28.530987
-13.7448238970246;-46.2511935277143;-4.7449254412204;-25.4479806458112;-63.2837439002469;-320.893079115544;-47.1500430042506;-39.7415294052335;3427;0;-255;15000;5026;-128;-61;106;505050;500;13:24:28.531010
-122.053445692494;-245.491639139364;-258.698643662501;-298.287180819694;-340.192464215972;-561.962310948176;-14.7064445434371;-82.3567880899645;3427;0;-255;15000;5026;-128;-61;106;505051;500;13:24:28.531043
-119.692649240373;-226.59143118246;-257.059328059084;-233.808760525833;-200.23139822972;-463.119076836505;-9.498568652838;-90.6492703696713;3427;0;-255;15000;5026;-128;-61;106;505052;500;13:24:28.561264
-218.718758752657;-333.130387345911;-370.704967465834;-301.300871625775;-190.203556178487;-370.46074215509;-64.973878208606;-164.421895693988;3427;0;-255;15000;5026;-128;-61;106;505053;500;13:24:28.561314
-146.569053005514;-293.238877548953;-418.323368415236;-473.27543809847;-462.517421414203;-254.101317729102;59.1204575497541;-53.4237491035601;3427;0;-255;15000;5026;-128;-61;106;505054;500;13:24:28.561353
-155.808038639254;-302.527589359786;-475.268170321593;-584.45281832671;-658.869054932497;-202.784762485302;15.7071768678725;-103.802783045685;3427;0;-255;15000;5026;-128;-61;106;505055;500;13:24:28.561394
-97.350789802731;-156.664017062983;-250.253012784058;-247.033079973015;-210.782738426467;205.647576815332;-37.1020453721867;-111.811276314547;3427;0;-165;14890;5088;-314;164;34;505056;500;13:24:28.561437
91.5547832709854;123.527422950021;93.1990587860346;207.419757340569;456.302883065131;569.221565384301;21.0554973231046;0.527925454545766;3427;0;-165;14890;5088;-314;164;34;505057;500;13:24:28.561483
188.66057957054;192.522062642733;132.247128175106;213.972235272231;221.662249131361;233.604324620101;148.048192314745;120.407950720866;3427;0;-165;14890;5088;-314;164;34;505058;500;13:24:28.561540
94.7407947926258;29.104673234513;-159.121380979661;-281.407378650067;-705.679325446603;-512.223149993806;87.6186622789246;65.874358745059;3427;0;-165;14890;5088;-314;164;34;505059;500;13:24:28.561588
44.7212370302586;-18.9860543586547;-265.983265660936;-674.196349356469;-1387.88235986518;-904.880553395487;115.39000080491;89.5313981607324;3427;0;-165;14890;5088;-314;164;34;505060;500;13:24:28.561638
101.655412169406;141.217483914574;-21.7015524341259;-375.37511102896;-846.160013165791;-720.20116273989;6.6667684657732;18.4836035766639;3427;0;-165;14890;5088;-314;164;34;505061;500;13:24:28.561688
134.024704454234;24.1471687841695;-218.711644387804;-435.038195210713;-719.599124898959;-740.524002255406;4.63809691596543;67.5718698210549;3427;0;-165;14890;5088;-314;164;34;505062;500;13:24:28.561743
30.8350226380571;-3.01872118539177;-85.3166560844984;-70.6032348418084;-175.22954576771;-406.790326125687;-60.9651847864152;-17.1175220360747;3427;0;-165;14890;5088;-314;164;34;505063;500;13:24:28.561799
35.263597715646;196.728901881725;422.051959703793;919.318636558601;1508.13837607339;888.713084992371;-98.9156828596024;-91.8049395109992;3427;0;-165;14890;5088;-314;164;34;505064;500;13:24:28.561856
38.6417397885816;195.225137637695;398.37005151913;961.727221225039;1688.74982399651;1105.68883748213;-70.8011266638641;-87.0501158257248;3427;0;-165;14890;5088;-314;164;34;505065;500;13:24:28.561915
105.57594211676;176.838806356071;188.143949549063;374.527089706651;673.550293399428;701.801470724749;59.3209843127406;14.0421346952207;3427;0;-190;14795;5062;-448;286;94;505066;500;13:24:28.608071
195.520050605846;206.374964076909;129.597675077268;163.324987068481;259.299769884965;516.585695937974;183.840840735938;132.752591281896;3427;0;-190;14795;5062;-448;286;94;505067;500;13:24:28.608099
191.914878203039;137.153301296639;120.470999589306;265.796517303301;198.023359494691;246.212924181717;242.204994395317;203.269329188275;3427;0;-190;14795;5062;-448;286;94;505068;500;13:24:28.608121
287.721825347689;417.595629867516;439.389842367265;504.114959884639;170.298016614397;-173.830066096154;29.5318165539647;105.948116829619;3427;0;-190;14795;5062;-448;286;94;505069;500;13:24:28.608144
236.240361163625;390.433099133545;542.640886826091;812.974770780769;789.841049819021;-145.409972648835;-180.486694419174;-49.7866985512665;3427;0;-190;14795;5062;-448;286;94;505070;500;13:24:28.608168
119.805265923409;142.982777897967;235.157794375322;411.392095198389;382.032668332919;-218.70120017312;-121.551447234757;-49.5440982492873;3427;0;-190;14795;5062;-448;286;94;505071;500;13:24:28.608195
-161.136137058231;-277.276127937832;-385.499791804934;-594.358295131271;-970.71950441564;-693.535842818324;-12.6663441765122;-129.796032432467;3427;0;-190;14795;5062;-448;286;94;505072;500;13:24:28.608221
-263.663526079268;-353.40855470486;-423.012494914117;-630.548065577255;-864.61480998859;-497.597363851848;-28.3650209775078;-220.965657718596;3427;0;-190;14795;5062;-448;286;94;505073;500;13:24:28.608248
-70.7513282749569;-164.239877846092;-280.172073822469;-505.274269692804;-457.702343080658;31.8000337553676;121.09533975774;-65.5327727554832;3427;0;-190;14795;5062;-448;286;94;505074;500;13:24:28.608278
-202.219203115092;-294.432126076194;-376.609788076719;-469.988467125542;-331.121090838627;55.7245293624001;-28.4456227093469;-194.262278885813;3427;0;-190;14795;5062;-448;286;94;505075;500;13:24:28.608308
-145.213096159307;-179.519166703685;-173.704546097317;-163.832134701544;43.3227434853325;296.978509087116;-93.6370866174693;-212.064521454275;3427;0;-315;14804;5044;49;110;211;505076;500;13:24:28.608339
-89.9069208083674;-75.971640209551;-66.738484829315;-61.2356037682039;194.464707569685;379.189934423659;-77.5173287354992;-156.098908377928;3427;0;-315;14804;5044;49;110;211;505077;500;13:24:28.608370
7.44321792360279;35.2294999001315;51.8131228743587;92.7506748232117;342.717861759302;276.516779852216;-61.5958304275409;-94.8635823745281;3427;0;-315;14804;5044;49;110;211;505078;500;13:24:28.608404
-126.971763705282;-92.464763296186;-34.8357411841862;86.8047024818952;490.099957329454;288.402017294313;-150.214099837991;-229.163501525647;3427;0;-315;14804;5044;49;110;211;505079;500;13:24:28.608437
-147.40988363736;-172.848446449265;-172.075989245903;-209.244336711068;-205.087008882372;-462.07587692549;-134.370213562215;-211.721628074767;3427;0;-315;14804;5044;49;110;211;505080;500;13:24:28.608472
-97.0310069046391;-134.959470090573;-133.690055329818;-258.120319768903;-478.186103631277;-664.553322893567;-152.506284886331;-179.583065278945;3427;0;-315;14804;5044;49;110;211;505081;500;13:24:28.608512
-3.55260977725266;46.5548605843214;225.201814931002;291.859438676765;359.177330804348;-108.235275617568;-180.347355823789;-142.870066472795;3427;0;-315;14804;5044;49;110;211;505082;500;13:24:28.608551
48.0149873897899;74.7512111266842;234.773112223484;354.980242914055;669.321760598861;85.378647375037;-165.102586968686;-98.659957891563;3427;0;-315;14804;5044;49;110;211;505083;500;13:24:28.608589
9.49956855329219;-6.71957279311027;31.5539704493713;-36.8431706501578;50.3891160956118;-33.4774352028035;-47.6858480640221;-83.816708913655;3427;0;-315;14804;5044;49;110;211;505084;500;13:24:28.608630
75.8081101932039;92.6953763980418;131.976478546741;3.53878365893615;-28.1683768261573;208.888202748727;49.3853026289144;-20.4619638589211;3427;0;-315;14804;5044;49;110;211;505085;500;13:24:28.608670
257.553942973027;308.127273462829;334.489363317844;115.959794754162;-79.9063491512788;287.232128661359;129.342367821431;90.7959886728786;3427;0;-367;14881;5009;612;51;387;505086;500;13:24:28.609272
221.377118624427;259.501534780255;289.998595227371;123.622749545117;-433.093960821163;-386.685746596195;19.4840757307247;32.7178880268475;3427;0;-367;14881;5009;612;51;387;505087;500;13:24:28.609340
294.955469855398;259.172666525352;136.73995216121;-404.444083889393;-1541.0761938378;-927.954397967318;76.9525390599738;154.238103272044;3427;0;-367;14881;5009;612;51;387;505088;500;13:24:28.609387
174.816637651442;216.106647294364;234.820127827814;-35.5039775652112;-383.332609986246;155.391567245708;51.2193860855186;31.7606520879781;3427;0;-367;14881;5009;612;51;387;505089;500;13:24:28.609434
-99.846946073958;-93.7477984523866;-39.0010792508256;91.324901315209;629.787550658046;353.68731409125;21.8305896793609;-129.932165589882;3427;0;-367;14881;5009;612;51;387;505090;500;13:24:28.656795
-129.596315906703;-222.842320422642;-224.932891140343;-141.182280120236;437.735800823837;-48.7423577117734;116.032477626868;-88.8639457081445;3427;0;-367;14881;5009;612;51;387;505091;500;13:24:28.656858
-147.044141162187;-276.77876539249;-344.934232670348;-518.848609343317;-605.562867582252;-771.099679289851;36.1415840783156;-95.0111674190266;3427;0;-367;14881;5009;612;51;387;505092;500;13:24:28.656908
-106.631028011936;-193.887562653632;-255.730513632181;-546.948393148661;-1412.21633446153;-1457.57492779032;-169.952587635838;-156.727687893319;3427;0;-367;14881;5009;612;51;387;505093;500;13:24:28.656962
-156.155568579648;-133.886302352184;12.237354314886;18.5907148509286;-552.166002226761;-860.443933576928;-402.285065934819;-312.073251096415;3427;0;-367;14881;5009;612;51;387;505094;500;13:24:28.657016
-156.361961387942;-42.8291937540052;315.614511193824;894.071803176688;1741.07917841495;687.23536338401;-372.332655564009;-345.223343061632;3427;0;-367;14881;5009;612;51;387;505095;500;13:24:28.657073
42.1896134582348;71.936146848253;199.804820241523;335.540288504475;907.117509168456;756.741012168117;-98.278093625675;-102.678199327784;3427;0;-314;15044;5032;753;-7;678;505096;500;13:24:28.657132
124.972979923157;10.3661505726632;-208.715396971093;-766.564984966564;-1157.65448351298;6.50206396251451;160.433023139136;74.2360957071651;3427;0;-314;15044;5032;753;-7;678;505097;500;13:24:28.657192
176.905270885938;124.463968151133;68.5903045781888;-248.983299140353;-346.53221819055;307.077814362943;253.926463087904;138.632366524893;3427;0;-314;15044;5032;753;-7;678;505098;500;13:24:28.657253
156.632368047285;191.41974033555;314.605474273558;355.556835435913;961.285091743164;757.918653463479;75.9434232976637;52.1633409752976;3427;0;-314;15044;5032;753;-7;678;505099;500;13:24:28.657317
144.556454942096;205.857064273325;343.880656925379;353.30462286633;502.745696697617;302.765607283451;-46.1576757199364;-0.434293742408045;3427;0;-314;15044;5032;753;-7;678;505100;500;13:24:28.657385
-74.0735536139982;-35.2867725350661;91.5465680670459;181.136060968565;606.410654332489;324.320291191922;-141.888529729622;-195.474545603734;3427;0;-314;15044;5032;753;-7;678;505101;500;13:24:28.657455
-248.233099078934;-336.023878523265;-301.733218877343;-264.157315745746;47.915995669784;-8.18059518607333;-84.3751662725117;-224.103363975068;3427;0;-314;15044;5032;753;-7;678;505102;500;13:24:28.657526
-198.602611641254;-354.743291047751;-374.078642204637;-350.105907778954;-221.382215816004;-39.3988101336872;40.9917838326655;-150.010011905921;3427;0;-314;15044;5032;753;-7;678;505103;500;13:24:28.657598
-104.865526938986;-156.578332679695;-3.28885838971473;220.905090918764;829.405027213506;756.571272748406;13.7421307247714;-149.379517902154;3427;0;-314;15044;5032;753;-7;678;505104;500;13:24:28.657696
184.466862842499;236.873628808185;495.038951645372;811.607887162914;1448.67050019768;785.337073813425;-159.248475693457;-46.3951701842016;3427;0;-314;15044;5032;753;-7;678;505105;500;13:24:28.657776
287.329567945591;393.860054907622;706.887859053095;1046.09730525519;1447.99815214734;293.983538234257;-500.003171860066;-74.8758154389216;3427;0;-291;15193;5072;446;-68;475;505106;500;13:24:28.657857
219.959601609124;414.71486240509;924.013472112129;1619.46614037562;2172.71217673109;673.313669338706;-587.052650798869;-164.61013119237;3427;0;-291;15193;5072;446;-68;475;505107;500;13:24:28.657942
267.703132363735;392.561878689565;784.617732285173;1292.23340593529;1667.97042871069;548.025998217519;-201.956303463958;11.1191077912226;3427;0;-291;15193;5072;446;-68;475;505108;500;13:24:28.658031
112.115706766839;96.39616351726;279.245836712886;494.025678435166;623.899662471551;36.7203485831851;63.064382714394;-9.12708995421417;3427;0;-291;15193;5072;446;-68;475;505109;500;13:24:28.658121
61.8164443000569;-108.625195194036;-169.14495806268;-328.020925561752;-273.001659586269;-36.9157608182868;323.779316500353;103.048156521516;3427;0;-291;15193;5072;446;-68;475;505110;500;13:24:28.658216
59.8427064727875;-212.701139800134;-489.698898767703;-1032.46448828842;-1136.82950628491;-407.754750937806;276.145677540102;114.443907423061;3427;0;-291;15193;5072;446;-68;475;505111;500;13:24:28.658319
-163.714151724096;-338.325221991981;-408.732094357954;-613.087251976074;-483.306062333169;-208.505138620734;6.49687883909792;-123.737455810653;3427;0;-291;15193;5072;446;-68;475;505112;500;13:24:28.658422
-101.255158516287;-205.980719401734;-205.535815294832;-221.779237172188;3.07585137651768;-83.2852727125864;-74.9480397169827;-105.534296120284;3427;0;-291;15193;5072;446;-68;475;505113;500;13:24:28.658543
46.8837564431597;-53.4184126757318;-122.131013273261;-281.541187122639;-242.05099189555;-88.8128794957884;42.3825615913374;0.88910486898385;3427;0;-291;15193;5072;446;-68;475;505114;500;13:24:28.719434
69.9463605476776;10.7848920272663;-48.7066809315002;-215.333763712872;-209.833264782385;324.099209460663;198.989893583697;4.62135364802089;3427;0;-291;15193;5072;446;-68;475;505115;500;13:24:28.719498
102.655681559205;133.810790747055;211.620698861429;266.435012005735;411.281908859732;463.530714003486;148.922000296181;4.33182833518367;3427;0;-337;15158;5026;-167;-111;87;505116;500;13:24:28.719547
174.702358103445;209.582785064355;325.589389354573;443.059460652788;643.025998180325;536.609328994295;100.467249907611;68.6392567851581;3427;0;-337;15158;5026;-167;-111;87;505117;500;13:24:28.719599
277.642355407588;297.319031292689;346.697427603649;355.111854271585;493.233548293705;571.985686535598;159.938250643434;155.990843181149;3427;0;-337;15158;5026;-167;-111;87;505118;500;13:24:28.719662
282.892574510042;281.592111475999;242.316239586449;172.848947715131;219.086552397348;152.755780562293;216.672820699227;172.683238877449;3427;0;-337;15158;5026;-167;-111;87;505119;500;13:24:28.719718
226.453862084396;220.338210464921;145.191516769235;125.023582461698;44.7478501981823;-349.68826741376;164.372054438805;120.591914898367;3427;0;-337;15158;5026;-167;-111;87;505120;500;13:24:28.719776
293.935600896541;327.783714429708;295.723051696434;191.077622969198;-218.840154026111;-711.688415354816;24.2745435173274;119.827427481185;3427;0;-337;15158;5026;-167;-111;87;505121;500;13:24:28.720263
346.650660022831;362.324866065523;171.082946535549;-453.235547702119;-1629.88612350519;-1322.54534921225;-2.77482321788557;175.711323735653;3427;0;-337;15158;5026;-167;-111;87;505122;500;13:24:28.720333
39.95141608821;23.7656043790048;-83.1818955707131;-444.543531540898;-1258.35386194952;-861.419857349247;-113.954727086762;-35.4335447063204;3427;0;-337;15158;5026;-167;-111;87;505123;500;13:24:28.720398
-225.157030066213;-300.629258024273;-409.792976659024;-419.048932768317;83.4532373457332;258.797236029292;-40.8924496846739;-158.478102797177;3427;0;-337;15158;5026;-167;-111;87;505124;500;13:24:28.720470
-345.834043304611;-438.112024463946;-562.378704977804;-545.899446809519;370.035948143865;414.993657970452;-27.371987432125;-197.498943386483;3427;0;-337;15158;5026;-167;-111;87;505125;500;13:24:28.720543
-265.247493239352;-303.561754218885;-419.881753832567;-497.238858291617;-296.002349919116;133.962374949246;-12.0317999368417;-140.625107474625;3427;0;-384;15033;4935;-604;46;67;505126;500;13:24:28.720615
-125.038364736538;-49.4427688514115;2.08239011303522;192.793669425824;475.295484419155;234.058892067987;-66.4449455555878;-95.387194179697;3427;0;-384;15033;4935;-604;46;67;505127;500;13:24:28.720695
20.3809861232876;155.792433936964;316.421171135502;612.846356458409;933.850224344525;251.409043918015;-33.7200562576181;-23.8793122788193;3427;0;-384;15033;4935;-604;46;67;505128;500;13:24:28.720773
100.383804089564;241.196522407234;373.416829391499;560.568704572273;668.163416180876;-123.003367239377;-77.9209702770459;-34.7506663922686;3427;0;-384;15033;4935;-604;46;67;505129;500;13:24:28.720855
125.721323526697;181.431426458526;252.799248274881;416.503490755538;559.798918491171;-112.130530994269;-2.31730049394537;54.8834766225191;3427;0;-384;15033;4935;-604;46;67;505130;500;13:24:28.720936
-14.224382215587;-17.7126767105656;-94.8836436304264;-206.752201313619;-335.275103848835;-406.469181548455;29.6112447757041;-9.64079608453903;3427;0;-384;15033;4935;-604;46;67;505131;500;13:24:28.721023
-94.7846281988604;-162.694401710643;-393.502427349449;-797.373017044243;-1434.80138752825;-1146.28955432202;-33.2659862980363;-54.4777434214484;3427;0;-384;15033;4935;-604;46;67;505132;500;13:24:28.722300
-142.535252403846;-272.071863987017;-516.458567761932;-915.513722140517;-1676.85009814246;-1253.74729142513;-71.5068017137819;-83.8464433492627;3427;0;-384;15033;4935;-604;46;67;505133;500;13:24:28.722448
-138.009176717722;-204.179674306186;-353.647555867094;-513.407631637005;-890.264200524776;-527.054546138155;-78.4611325099249;-70.1140126241371;3427;0;-384;15033;4935;-604;46;67;505134;500;13:24:28.722546
-33.1658332980005;-30.7964481785893;-81.5562418889022;-149.096456997999;188.632745576906;644.726114242803;17.0303261186928;20.9618904058589;3427;0;-384;15033;4935;-604;46;67;505135;500;13:24:28.722649
-99.5610678543744;-150.744853149401;-334.576353792916;-680.719299980818;-420.413266054122;446.378563667065;-117.233008301817;-20.2748777796514;3427;0;-454;14881;4956;-104;-206;268;505136;500;13:24:28.722766
-48.8549496732885;-119.133761221543;-259.46863536397;-426.579540911422;-80.7593973566545;361.790013690828;-191.184055930527;-8.32734018261544;3427;0;-454;14881;4956;-104;-206;268;505137;500;13:24:28.722881
-32.5674974645372;-66.0503311025677;-172.369967936422;-157.709266202146;317.262117167935;348.799582908745;-193.648129472218;-15.4098539596889;3427;0;-454;14881;4956;-104;-206;268;505138;500;13:24:28.722991
-199.331477855507;-143.807968916488;15.0099094533361;337.364981312974;1177.36151322135;825.87460611097;-4.28080299048452;-136.684140128316;3427;0;-454;14881;4956;-104;-206;268;505139;500;13:24:28.723117
-17.1876671497012;13.9351808563806;115.580797079601;255.833228341478;454.567334274587;228.682348862058;115.147158371401;-3.03331058565527;3427;0;-454;14881;4956;-104;-206;268;505140;500;13:24:28.723240
-13.2108536667365;-46.9287738709245;-70.3139436064521;7.36647161468863;110.455065118324;-323.298888907419;-180.319245459919;-42.9694765800377;3427;0;-454;14881;4956;-104;-206;268;505141;500;13:24:28.723350
-212.007424665382;-220.317904936965;-173.39105609816;54.163641465886;379.802145780472;-78.3461057185195;-393.582886182819;-247.367123342934;3427;0;-454;14881;4956;-104;-206;268;505142;500;13:24:28.723850
-145.964123633807;-132.165360443178;-35.6813038365217;107.330515463371;399.321689569857;73.1199121738318;-503.799512665195;-253.434566322481;3427;0;-454;14881;4956;-104;-206;268;505143;500;13:24:28.723981
-109.558475467958;-78.8958379287506;-21.9206394152716;-7.12013488644152;61.8268962691072;103.442026758217;-277.727512046113;-190.847804159042;3427;0;-454;14881;4956;-104;-206;268;505144;500;13:24:28.724121
-24.909588800132;-16.35097787634;-60.0057623124449;-116.166281075333;-208.849731043156;84.6878581673373;55.8380737332627;-32.6417381257052;3427;0;-454;14881;4956;-104;-206;268;505145;500;13:24:28.724250
38.8082690316369;140.813117210055;220.385878714849;416.126483342028;805.794698121666;718.062125242897;12.5811053728685;-16.5282665933482;3427;0;-487;14705;4880;226;-314;-95;505146;500;13:24:28.781931
-20.5018854976806;167.815780156176;351.186688744579;724.125308206101;1332.72609072499;767.125912265386;-49.0173504205886;-77.1338323629461;3427;0;-487;14705;4880;226;-314;-95;505147;500;13:24:28.781996
364.140259788721;533.342136161751;569.777468604152;716.213157115009;915.922229456599;369.354824083159;-22.3949798365938;189.962985624559;3427;0;-487;14705;4880;226;-314;-95;505148;500;13:24:28.782054
159.641963014787;200.648035904625;190.362150227069;185.661170248757;264.794555296132;-76.1320115720155;-128.272441337816;73.1120676248102;3427;0;-487;14705;4880;226;-314;-95;505149;500;13:24:28.782110
-46.2838429478288;-97.093175724498;-220.097430312424;-442.616019350331;-569.011624359293;-468.352877316298;-62.8920774650178;-20.4200867133914;3427;0;-487;14705;4880;226;-314;-95;505150;500;13:24:28.782165
-109.518042250333;-157.582062350586;-332.267476122943;-666.525263139571;-1099.22790245945;-844.726174082025;3.66178778471658;-96.8834862760268;3427;0;-487;14705;4880;226;-314;-95;505151;500;13:24:28.782222
-120.28348080776;-214.328153273673;-386.380188638461;-723.644082353858;-1285.89981897513;-1050.41061814153;124.040441716905;-66.0573714583879;3427;0;-487;14705;4880;226;-314;-95;505152;500;13:24:28.782282
-174.634599812416;-319.050768154557;-519.30169503612;-840.639744939312;-1278.39712914958;-927.536521672038;146.517572630895;-117.100811141194;3427;0;-487;14705;4880;226;-314;-95;505153;500;13:24:28.782345
-204.450229612004;-213.766389708966;-205.34459456068;-188.969278583449;-76.454949850915;-32.0321147935465;58.4024278949364;-169.489727759967;3427;0;-487;14705;4880;226;-314;-95;505154;500;13:24:28.782410
-155.379550012731;-82.9572481859941;85.8187412718544;438.670714078529;1027.99964396551;549.198031083681;-78.3019555286155;-189.417890420533;3427;0;-487;14705;4880;226;-314;-95;505155;500;13:24:28.782475
15.3152317155618;118.76510461641;307.755459013861;656.9821415185;1335.54960345052;922.411582062021;-172.552529132925;-118.658851034474;3427;0;-414;14507;4853;677;-268;-490;505156;500;13:24:28.782544
133.196745761525;238.46402222605;396.727833425044;634.042452367285;1226.80183083552;1089.19782488781;-99.6637198367971;-22.9413796927547;3427;0;-414;14507;4853;677;-268;-490;505157;500;13:24:28.782615
235.688502614823;321.877685532207;436.873750625295;621.301818218024;897.758531431784;875.241206615348;108.462017030979;115.306524934014;3427;0;-414;14507;4853;677;-268;-490;505158;500;13:24:28.782686
78.5170811828284;117.044390987954;169.433592931251;319.515744767123;533.039195357997;365.798220052035;108.278981078998;13.3243831449654;3427;0;-414;14507;4853;677;-268;-490;505159;500;13:24:28.782759
20.692444001179;68.7951002664631;140.844402214629;310.66595518461;397.440157657256;-6.12277360842563;125.981415900693;8.01489660039078;3427;0;-414;14507;4853;677;-268;-490;505160;500;13:24:28.782837
-53.3045877761615;3.25820626446512;18.200806183042;123.040161937708;-1.81139188498491;-521.467238375102;3.33961792779155;-60.8283623307943;3427;0;-414;14507;4853;677;-268;-490;505161;500;13:24:28.782916
10.7615202431334;71.7015991603257;110.743497971678;243.826433783281;358.176339301688;-410.258035091334;-46.2210496146581;-53.2848150365753;3427;0;-414;14507;4853;677;-268;-490;505162;500;13:24:28.782998
-7.46003520293743;-37.5993677964434;-167.54742782691;-416.002301078173;-584.178086257831;-750.588562342804;54.8946893297252;-12.046006280696;3427;0;-414;14507;4853;677;-268;-490;505163;500;13:24:28.783090
-39.3661982933409;-93.8591217675712;-316.150754529051;-689.951303364098;-1139.10554254433;-727.897247656947;106.051991296699;39.6095011036377;3427;0;-414;14507;4853;677;-268;-490;505164;500;13:24:28.783179
-25.1600495357125;6.60553437157068;-44.5187620493816;-36.2681704671413;58.9537404118455;523.803406298044;-1.43936922540888;1.18122443940956;3427;0;-414;14507;4853;677;-268;-490;505165;500;13:24:28.783266
148.862833391933;277.73345265782;348.934915375314;519.816139488306;1297.69934734021;1370.30395006959;22.5924226475763;88.4448182481574;3427;0;-174;14569;4880;550;-83;-462;505166;500;13:24:28.784527
265.056917182694;486.833646443323;568.524655226269;654.543573960778;1138.62372991553;1097.15893569507;121.847940606123;198.4651204166;3427;0;-174;14569;4880;550;-83;-462;505167;500;13:24:28.784639
337.058500899177;508.466726234998;511.075919428025;380.126902285963;356.423540939344;608.757683499483;317.246328090667;339.897349372623;3427;0;-174;14569;4880;550;-83;-462;505168;500;13:24:28.784761
373.366598239256;581.484514383483;492.086901594303;279.052798753517;-112.930036750855;-210.448370665777;225.980732607306;260.925881117466;3427;0;-174;14569;4880;550;-83;-462;505169;500;13:24:28.784869
-7.17305253626546;-77.8296052190708;-150.756953673786;-169.575000890123;-358.787543384242;-550.367822698085;132.864741453668;70.6370285768062;3427;0;-174;14569;4880;550;-83;-462;505170;500;13:24:28.784981
-282.59193505859;-442.70834350423;-571.911722737481;-710.974643962982;-1063.65276855353;-855.214693477494;65.7500109799439;-97.4033756767167;3427;0;-174;14569;4880;550;-83;-462;505171;500;13:24:28.785106
-324.011211310513;-547.62037784385;-827.791596575757;-1176.02325059753;-1746.755329418;-1276.46443805972;-24.379092674295;-113.285811236012;3427;0;-174;14569;4880;550;-83;-462;505172;500;13:24:28.785237
-331.113165841642;-540.894967894419;-855.85695238621;-1337.09439021401;-1724.64275470015;-787.100750898942;-53.7569466385175;-138.902928107185;3427;0;-174;14569;4880;550;-83;-462;505173;500;13:24:28.785355
-356.99462155503;-470.632561523933;-678.826522567309;-924.697534295119;-852.091841885878;-58.361941483221;88.1585339534795;-166.182186051155;3427;0;-174;14569;4880;550;-83;-462;505174;500;13:24:28.785487
-218.570732522174;-177.636203155154;-87.6004951137584;296.463862243399;1015.26747164375;545.01048005966;48.4302636364009;-150.383175749797;3427;0;-174;14569;4880;550;-83;-462;505175;500;13:24:28.785606
-38.1420455908228;67.9834006156307;236.878062875476;725.254387440975;1404.42314468423;594.266256860341;-116.015818209737;-60.244589963695;3427;0;99;14830;4800;125;619;-202;505176;500;13:24:28.785731
45.6290792793152;121.721289513283;279.046337967739;715.38842065935;1021.49188393471;367.615902587306;-121.391862475488;-11.9728730302304;3427;0;99;14830;4800;125;619;-202;505177;500;13:24:28.785876
188.970817929716;142.983452764107;85.1592072888743;306.131588023709;578.709018684924;450.849096436286;225.090173718345;187.73968562251;3427;0;99;14830;4800;125;619;-202;505178;500;13:24:28.844707
132.759606732812;230.555489067454;58.6518466396956;-100.014019502298;-59.3039038206334;115.651763713686;267.125195738394;122.601885618293;3427;0;99;14830;4800;125;619;-202;505179;500;13:24:28.844767
394.25020607168;669.804825209663;562.139971225522;317.763106322644;166.268440717482;312.315053848666;376.199558960157;222.24084129394;3427;0;99;14830;4800;125;619;-202;505180;500;13:24:28.844828
304.648691571463;306.55809866311;284.196472399635;298.031006465113;315.480129572796;303.785953513347;311.978955274913;220.258429981186;3427;0;99;14830;4800;125;619;-202;505181;500;13:24:28.844878
233.047839953768;260.865584932384;219.393198818667;187.108967617591;11.6553012129152;-158.790604701149;149.173459816724;146.742401418975;3427;0;99;14830;4800;125;619;-202;505182;500;13:24:28.844931
66.9323415355175;105.427600075956;67.9408974032849;-22.8036110538233;-257.569738415012;-367.147788236616;-4.64857746957568;48.3012679318199;3427;0;99;14830;4800;125;619;-202;505183;500;13:24:28.844987
-241.204571988783;-292.535023274831;-400.615315315663;-543.124021563155;-742.046819393989;-485.438967240392;-189.343156904622;-139.343356273486;3427;0;99;14830;4800;125;619;-202;505184;500;13:24:28.845043
-35.6922213569342;-64.4250576249324;-195.507063315716;-283.790848606353;-353.897967768891;20.8450151919387;-51.7375724634039;-19.5591327333823;3427;0;99;14830;4800;125;619;-202;505185;500;13:24:28.845102
24.1556630018749;55.5017325483495;46.7973539722152;261.495117990504;872.114477930241;834.82961831789;7.63318373949733;1.34287831990514;3427;0;180;15013;4764;149;968;-197;505186;500;13:24:28.845165
-0.219457700412022;11.9480769488728;31.6750325761968;221.601055208041;711.412614297238;706.482562043238;69.2434676963021;-20.7472739871591;3427;0;180;15013;4764;149;968;-197;505187;500;13:24:28.845230
-38.20262546101;-76.7744858167134;-96.5467624445446;-4.62781184443156;224.75338521431;233.886859526276;198.650149940571;9.11405215086415;3427;0;180;15013;4764;149;968;-197;505188;500;13:24:28.845298
-242.659342261613;-337.297937364085;-446.756471294211;-480.442945799034;-398.936810242594;-377.903283106745;68.0589980987133;-132.322242362541;3427;0;180;15013;4764;149;968;-197;505189;500;13:24:28.845369
-297.478870012128;-396.799275187193;-506.376366993296;-572.673748725676;-565.649502270971;-505.040457447059;12.6332003303105;-189.506172727444;3427;0;180;15013;4764;149;968;-197;505190;500;13:24:28.845440
-228.377611801727;-300.517583963112;-395.301260017557;-430.199946818524;-457.971643332974;-553.057941546314;-65.9508560987888;-166.468863144633;3427;0;180;15013;4764;149;968;-197;505191;500;13:24:28.845512
-272.423647939984;-302.813587209559;-344.228761668201;-281.538485085592;-184.671104666719;-471.267077915254;-231.994400077732;-242.093590253498;3427;0;180;15013;4764;149;968;-197;505192;500;13:24:28.845588
-166.847015291016;-162.963320483337;-129.812406921294;23.2832220070704;304.841677410121;-91.3614855096675;-324.40558763739;-181.614937219652;3427;0;180;15013;4764;149;968;-197;505193;500;13:24:28.845666
39.7736073260021;43.7154071951518;107.768849922577;211.010379622167;437.43711332255;304.672168436577;-304.350450132741;-73.1908382551046;3427;0;180;15013;4764;149;968;-197;505194;500;13:24:28.845748
192.137620816793;195.142899218248;215.179481837898;181.735758636903;270.235675331496;525.817656740779;-217.952816739853;7.0510013832245;3427;0;180;15013;4764;149;968;-197;505195;500;13:24:28.845841
-8.20103541080607;7.79174664977472;67.8350454194006;150.832091621385;422.116680987179;616.981366317254;-11.3885051077814;-97.5525433685398;3427;0;43;15053;4794;298;831;-380;505196;500;13:24:28.845928
-72.8755743402871;-73.870490105357;1.82766162522603;163.039516800578;414.07880437281;498.295715455315;276.071401791414;-80.6026903669117;3427;0;43;15053;4794;298;831;-380;505197;500;13:24:28.846020
23.2535410994897;34.301748045953;99.6188846308505;256.575296375115;355.443998049886;218.09825137828;318.45038295124;15.6383603814756;3427;0;43;15053;4794;298;831;-380;505198;500;13:24:28.846118
-4.04949169920292;1.00357907672878;21.2856545272516;80.6214561212691;-57.2399535466684;-241.458027576678;91.9761539651081;-31.4287617697846;3427;0;43;15053;4794;298;831;-380;505199;500;13:24:28.846219
29.6071129188349;46.6271485260222;35.3544587416109;53.9361830955895;-114.969444116694;-324.598613003851;-16.3989444217877;-25.2383321109228;3427;0;43;15053;4794;298;831;-380;505200;500;13:24:28.847479
35.0173623783048;42.9855818569195;12.4775748293614;4.72587065177504;-83.5300895723049;-349.050934544764;-238.694598592585;-92.6614419922698;3427;0;43;15053;4794;298;831;-380;505201;500;13:24:28.847596
73.152303017996;90.0688642882742;98.2042283895425;121.091784975026;171.112845730153;-185.366159054451;-373.736465334718;-108.557888339739;3427;0;43;15053;4794;298;831;-380;505202;500;13:24:28.847723
124.720599204855;163.391794905765;224.593833502266;355.249345000688;536.8499536647;120.375032355427;-396.771453486697;-56.676816719817;3427;0;43;15053;4794;298;831;-380;505203;500;13:24:28.847844
191.539966986398;197.036566535477;221.203026056406;275.426263817062;468.700346229365;350.743726581451;-97.5294241266092;32.3209553037304;3427;0;43;15053;4794;298;831;-380;505204;500;13:24:28.847974
12.062060698634;-11.2268878722098;-59.4093277467182;-120.41586930945;8.85361082310556;401.335018786252;393.74756641296;-1.03097539301962;3427;0;43;15053;4794;298;831;-380;505205;500;13:24:28.848085
65.3741067441588;36.5161570399068;-72.1786024688045;-139.648962440435;-30.8587877618265;471.153716280241;542.987885916664;106.151852843352;3427;0;-117;15077;4872;-27;583;-145;505206;500;13:24:28.848209
48.4555969740904;-1.8006174742477;-94.7230478201527;-72.1804710736033;24.3318423390156;373.1326709321;442.900392429554;83.7987660828512;3427;0;-117;15077;4872;-27;583;-145;505207;500;13:24:28.848346
89.3837458060589;-6.84520094422624;-82.201126143802;-19.4641305724508;20.2012764309184;204.771324471803;421.557608084171;123.333802513778;3427;0;-117;15077;4872;-27;583;-145;505208;500;13:24:28.902280
-10.3209410195414;-120.14486445277;-160.263262571883;-142.304684090283;-165.734069371072;-147.326142745442;251.402868315054;13.3083517942578;3427;0;-117;15077;4872;-27;583;-145;505209;500;13:24:28.902316
-93.8739340503234;-198.237574575818;-234.363046438317;-231.805762446224;-296.67243223259;-408.564972180291;155.906606599281;-43.6688359141117;3427;0;-117;15077;4872;-27;583;-145;505210;500;13:24:28.902345
-76.0114748444757;-284.291015891824;-349.265634418814;-275.461490255169;-352.426796043816;-490.632376592257;135.133993687283;12.360540322843;3427;0;-117;15077;4872;-27;583;-145;505211;500;13:24:28.902375
-31.5379472932545;-131.753322838107;-260.989141921862;-304.648798209557;-398.52736626059;-522.962121528573;-1.65283071564045;-59.5097771934234;3427;0;-117;15077;4872;-27;583;-145;505212;500;13:24:28.902405
-22.3996798689477;-6.95272816903889;-17.7866258756258;-34.3420381228498;-146.906468109635;-270.656185590196;-162.568823598791;-105.636599090532;3427;0;-117;15077;4872;-27;583;-145;505213;500;13:24:28.902437
3.5190360005945;-13.8911113470094;-15.1258433170151;43.7787326097023;46.9219502983615;35.1531541983131;-188.306946385303;-73.6710431892425;3427;0;-117;15077;4872;-27;583;-145;505214;500;13:24:28.902469
35.0764230976929;54.7824130051304;37.1896192425629;162.659571039025;294.97157041129;386.82953528245;9.87664450798184;-23.2205980028957;3427;0;-117;15077;4872;-27;583;-145;505215;500;13:24:28.902503
22.5135146548564;57.008950735908;41.1504950234666;185.643568369589;344.144000923552;440.943914754083;119.129039580992;-6.19288539129775;3427;0;-134;15140;5002;-205;338;144;505216;500;13:24:28.902538
68.737636860169;72.1241489232052;54.9977564676665;126.846067513427;149.221034862916;346.297028655652;213.099988291331;73.2284466886194;3427;0;-134;15140;5002;-205;338;144;505217;500;13:24:28.902579
101.463121976878;75.1228062453447;57.7387289976468;120.452649701212;133.613216256839;298.530819324311;293.964128579537;132.773926868918;3427;0;-134;15140;5002;-205;338;144;505218;500;13:24:28.902618
-23.2359557807795;-81.9120813404443;-76.6937790210359;-51.8212824749062;-74.5917147461441;-97.4555499365088;92.5767217908287;5.74005028256215;3427;0;-134;15140;5002;-205;338;144;505219;500;13:24:28.902656
-181.158021455805;-283.688806289574;-196.525806920603;-166.29206321892;-253.362543067371;-393.093444478465;-63.5683362113195;-124.676406057552;3427;0;-134;15140;5002;-205;338;144;505220;500;13:24:28.902697
-201.951382827101;-315.985274209175;-212.497816564632;-168.027245632868;-286.79150843434;-515.093429140514;-65.7178073732648;-142.159769915859;3427;0;-134;15140;5002;-205;338;144;505221;500;13:24:28.902739
-152.91491785954;-211.722792527638;-207.393362006755;-171.721659941861;-249.235781540046;-475.556540294318;0.730635196727235;-142.525540650357;3427;0;-134;15140;5002;-205;338;144;505222;500;13:24:28.902784
-161.128350496525;-210.116136728786;-235.138141795178;-205.175590487779;-219.095489986707;-375.876201219391;-47.9315695695113;-187.599734748947;3427;0;-134;15140;5002;-205;338;144;505223;500;13:24:28.902828
-251.713835067174;-294.977227650234;-196.939970289357;-83.1792851935606;-23.3673609409016;-71.7204266376793;-65.1780741269467;-181.422630066634;3427;0;-134;15140;5002;-205;338;144;505224;500;13:24:28.902875
-68.8717481834756;-47.8495045539457;58.4193506459706;169.465070018021;243.454690882179;254.477320806705;-58.3567395912251;-48.1160226786742;3427;0;-134;15140;5002;-205;338;144;505225;500;13:24:28.902924
240.876756988582;250.850053345435;233.075287340675;244.048453094292;304.210923403152;342.067462263978;-78.4494487952325;84.5215090650599;3427;0;-61;15266;5094;-166;344;187;505226;500;13:24:28.902976
276.448738947423;250.667017095606;155.116944848793;106.022919936804;315.502940283273;388.800522253849;-7.85725461470429;158.855832645902;3427;0;-61;15266;5094;-166;344;187;505227;500;13:24:28.903030
226.103478601523;263.395134088234;236.131705428823;208.215973109065;349.497731114854;306.741464568884;149.303377438686;135.86226088414;3427;0;-61;15266;5094;-166;344;187;505228;500;13:24:28.903087
35.2660789315123;76.2109689421486;53.7764861916658;13.9820436107693;70.0242114830762;-29.6976817983668;136.552436329774;-11.0677862301236;3427;0;-61;15266;5094;-166;344;187;505229;500;13:24:28.903145
165.802995501057;208.366400181432;185.732709055184;105.3908145717;68.3119342562277;-192.003656053799;-174.168514299381;32.6492307020817;3427;0;-61;15266;5094;-166;344;187;505230;500;13:24:28.903203
41.2979838659812;10.9270506878383;-31.7773987645051;-110.419899967004;-137.099627646559;-422.831234882469;-240.515803454793;-9.64314375212416;3427;0;-61;15266;5094;-166;344;187;505231;500;13:24:28.903261
-189.972195614304;-272.490558298188;-315.13852499472;-368.249858648633;-335.965682103473;-490.766539848526;-33.7386428203899;-97.1193289685762;3427;0;-61;15266;5094;-166;344;187;505232;500;13:24:28.903318
-331.89093427133;-427.146176237264;-465.76170725096;-493.658618459245;-394.20441866474;-396.847329679877;255.919824454875;-162.63064484694;3427;0;-61;15266;5094;-166;344;187;505233;500;13:24:28.903387
-57.6321973157756;-39.2557481139665;4.61827123956755;14.5407052576775;98.8350241130684;126.206741865375;236.870939448359;-155.767754454399;3427;0;-61;15266;5094;-166;344;187;505234;500;13:24:28.904181
83.0231428940024;173.861698454712;266.399804616231;314.662659495749;406.83926876547;434.037335623754;157.432117667282;-106.253365571261;3427;0;-61;15266;5094;-166;344;187;505235;500;13:24:28.904279
146.394029424351;223.324053436285;287.396443843609;321.844231142022;451.613470293116;506.463883576216;128.666451631812;-1.70334355684463;3427;0;0;15308;5120;-261;410;122;505236;500;13:24:28.955222
187.105389957112;246.322566509596;288.244680045755;305.073583344813;417.30486573797;456.72906588146;203.604571455275;75.7037396238884;3427;0;0;15308;5120;-261;410;122;505237;500;13:24:28.955249
265.063372280216;294.861617765273;295.033492945135;294.462873559125;327.758537769201;310.210274204728;390.885965233145;205.803505785414;3427;0;0;15308;5120;-261;410;122;505238;500;13:24:28.955270
131.36321879091;101.302607972524;79.1267870388692;84.2301139792253;104.16809612076;14.4595789901214;281.664387831523;96.7651739805005;3427;0;0;15308;5120;-261;410;122;505239;500;13:24:28.955281
-42.4098079146061;-117.668140862253;-160.917967511574;-158.161719943018;-124.584244128724;-255.735982387559;174.789446470386;-66.5650941268541;3427;0;0;15308;5120;-261;410;122;505240;500;13:24:28.955302
-89.7928387019492;-168.937922550598;-231.009397090529;-352.801819486573;-306.750241195259;-468.88505677192;171.598150172271;-105.622318563168;3427;0;0;15308;5120;-261;410;122;505241;500;13:24:28.955315
-71.9871275863552;-117.204961646581;-94.5109943877906;-200.167487475119;-158.693074554263;-336.511501166038;190.302392270649;-59.7192257016432;3427;0;0;15308;5120;-261;410;122;505242;500;13:24:28.955336
-31.5447824654111;0.467565974220634;63.1427123954054;27.0870901388989;107.764705712034;-80.5657702104654;-11.8460808852687;-113.76164769358;3427;0;0;15308;5120;-261;410;122;505243;500;13:24:28.955349
42.1811367827468;96.7956757146167;188.019055391778;204.796614517138;340.084645348077;201.999304338708;-203.5197242797;-149.237301266519;3427;0;0;15308;5120;-261;410;122;505244;500;13:24:28.955362
120.947202479379;179.992104044301;293.441155099659;330.591584919428;546.633907646989;523.758920873748;-145.34897269815;-61.0395475783153;3427;0;0;15308;5120;-261;410;122;505245;500;13:24:28.955376
105.312756074505;174.692855918547;282.260681419633;289.840797634941;483.264624269563;549.318505415111;-8.39924263069406;-60.3967236396857;3427;0;-51;15375;5110;-759;356;593;505246;500;13:24:28.955391
202.162747876748;241.996408766252;280.15247046377;278.406170188158;374.955397229292;426.469159942935;240.127688535373;89.3023842208786;3427;0;-51;15375;5110;-759;356;593;505247;500;13:24:28.955406
258.045511531964;263.731410086388;306.878237700206;314.80323541275;414.064709789935;395.568115899572;339.46093512181;167.566332744202;3427;0;-51;15375;5110;-759;356;593;505248;500;13:24:28.955420
160.183370378654;166.928834596765;203.077456233907;206.640219631692;224.107743312896;25.176212260616;165.253927255864;65.972030529636;3427;0;-51;15375;5110;-759;356;593;505249;500;13:24:28.955436
185.767822627706;234.30295366107;220.80825350096;109.757280606485;-3.23571711208206;-257.116602287628;160.165277787193;72.9684301791713;3427;0;-51;15375;5110;-759;356;593;505250;500;13:24:28.955453
92.7696854479145;6.67762565566227;-7.14636206417345;-86.2884814210993;-190.971412875282;-449.418180073146;162.090114869236;27.2060445183888;3427;0;-51;15375;5110;-759;356;593;505251;500;13:24:28.955470
-6.02697073464515;-67.0559845517855;-45.4297393443994;-102.002088975423;-147.793561666855;-372.976695001358;132.184674893622;-44.8170853609918;3427;0;-51;15375;5110;-759;356;593;505252;500;13:24:28.955487
-61.8522913642228;-140.859937882167;-151.801751498715;-151.302839524695;-132.974005533673;-255.73782154615;83.7663236712688;-85.1329100705916;3427;0;-51;15375;5110;-759;356;593;505253;500;13:24:28.955506
-80.2094362349308;-148.149459716049;-129.639929337893;-80.7324415027397;-5.04722075612517;-31.6346291243099;53.8367590800044;-109.041997423163;3427;0;-51;15375;5110;-759;356;593;505254;500;13:24:28.955525
7.00291209481657;-16.2176599791273;1.56231661327183;102.24692886931;235.563056856627;283.083393174922;95.8285696684034;-34.267352691968;3427;0;-51;15375;5110;-759;356;593;505255;500;13:24:28.955544
-40.0361083186581;-18.1010204104241;3.92654679366387;125.925361372967;287.328839574009;368.279760535224;49.8425617481116;-83.64967493515;3427;0;-343;15429;5197;-722;-251;1029;505256;500;13:24:28.955565
73.5070080148289;107.239372143988;125.510652374243;256.627759659867;355.330594576197;385.816761558992;101.815999030077;-2.2312750343699;3427;0;-343;15429;5197;-722;-251;1029;505257;500;13:24:28.955586
230.347916532657;219.085373248439;221.721602190752;324.075631958753;374.769393883122;332.563641455257;287.292154423194;191.457549524843;3427;0;-343;15429;5197;-722;-251;1029;505258;500;13:24:28.955607
203.36561710469;156.614213307737;131.885579970665;178.006809145765;160.420366310107;25.5634423872689;233.92923051893;166.083421762916;3427;0;-343;15429;5197;-722;-251;1029;505259;500;13:24:28.955630
145.906154852477;92.9295454730745;72.9786285635782;67.5424582258565;22.2790230139508;-241.829128718586;145.448649952887;92.3260782266734;3427;0;-343;15429;5197;-722;-251;1029;505260;500;13:24:28.955653
88.164765877882;70.7801123004174;77.4104493901832;68.7607540148892;-8.80100376426708;-323.023745340761;148.498204626958;31.4111367351143;3427;0;-343;15429;5197;-722;-251;1029;505261;500;13:24:28.955677
158.340506184526;283.428622504813;298.420578391524;252.810453757731;127.456811630109;-193.511280017672;111.753999965789;-2.90693866775837;3427;0;-343;15429;5197;-722;-251;1029;505262;500;13:24:28.955699
150.121482336603;74.0495659437729;37.6733572636731;93.6968809643295;77.1712549098884;-80.5147461120505;122.170341333607;38.7283753391821;3427;0;-343;15429;5197;-722;-251;1029;505263;500;13:24:28.955734
141.999206686916;60.0690715505043;73.3359762919135;191.959408575844;235.203600275214;203.985718206502;126.4893346139;33.1361603063997;3427;0;-343;15429;5197;-722;-251;1029;505264;500;13:24:29.002572
181.672611127782;141.660449340241;169.168892717338;292.962305132911;359.45335694548;423.313118424965;120.811967863701;31.5874650040641;3427;0;-343;15429;5197;-722;-251;1029;505265;500;13:24:29.002593
144.324990169611;121.858996450785;150.511351781082;270.461609367951;360.900356286438;456.041927387356;74.4571619480266;-0.749264359008521;3427;0;-459;15191;5268;-1145;-737;-241;505266;500;13:24:29.002608
195.881516517897;178.818503416609;212.574346762267;321.768512346403;388.152530252817;438.656819391763;111.159246852447;51.7862848509103;3427;0;-459;15191;5268;-1145;-737;-241;505267;500;13:24:29.002625
186.168006149877;139.660051819519;170.504357176484;232.303854730417;252.074766082107;257.503468177398;155.348611798487;79.8138369329972;3427;0;-459;15191;5268;-1145;-737;-241;505268;500;13:24:29.002642
14.5878491401381;-74.9079664651072;-82.714916458237;-56.7894460386306;-137.706365938473;-192.690508287749;31.0369318450685;-40.5799410374602;3427;0;-459;15191;5268;-1145;-737;-241;505269;500;13:24:29.002659
-50.5068578345235;-141.70660128037;-198.613039299613;-168.364773359877;-316.909097022959;-462.355636317865;10.6322835652973;-65.0627739870688;3427;0;-459;15191;5268;-1145;-737;-241;505270;500;13:24:29.002677
-17.3995566274389;-79.472236967762;-177.906560694915;-189.102997099719;-330.887152992247;-597.460585454712;-5.54298704059329;-64.3936600838788;3427;0;-459;15191;5268;-1145;-737;-241;505271;500;13:24:29.002696
-201.341699921119;-303.217108889017;-339.307250528014;-286.093290199846;-345.671418427548;-567.880538329249;-113.934450226836;-187.948660615715;3427;0;-459;15191;5268;-1145;-737;-241;505272;500;13:24:29.002716
-178.267173325963;-292.613115105894;-301.917321801768;-261.617861710925;-291.689005948661;-355.798287264188;-98.7370775460149;-160.891412421828;3427;0;-459;15191;5268;-1145;-737;-241;505273;500;13:24:29.002738
58.1816464463773;14.0063288807869;40.0976405926049;86.5234727570787;103.479447228834;123.948464361136;17.6365071423934;-7.95996085868683;3427;0;-459;15191;5268;-1145;-737;-241;505274;500;13:24:29.002759
173.419644876471;179.6592268073;213.871870727628;305.101853434258;355.578313334205;418.825029418455;16.2878322437755;37.7249161384534;3427;0;-459;15191;5268;-1145;-737;-241;505275;500;13:24:29.002781
296.155484286544;314.417789854459;373.542692735093;450.382709981583;512.096658918948;579.822033628821;93.4613164403127;104.700226513436;3427;0;-10;15042;5121;-1952;-153;-966;505276;500;13:24:29.002804
370.640926151798;366.987727720989;434.811529580853;502.406997565588;565.278219798871;618.542488130857;234.260913173785;184.747501260252;3427;0;-10;15042;5121;-1952;-153;-966;505277;500;13:24:29.002831
386.544381727581;382.11817147024;448.592118336237;486.1871576134;510.448883585981;507.693199916626;296.774575169897;250.869210029719;3427;0;-10;15042;5121;-1952;-153;-966;505278;500;13:24:29.003428
128.953846044285;34.327285691048;40.8345959346043;50.789864249964;25.9920816941885;-14.1964454710251;147.821723237867;85.6062235737918;3427;0;-10;15042;5121;-1952;-153;-966;505279;500;13:24:29.003457
-29.0316140544019;-184.90351011022;-216.745567041566;-253.960225214338;-330.185135712265;-378.518832796603;126.928946657514;5.87834138446487;3427;0;-10;15042;5121;-1952;-153;-966;505280;500;13:24:29.003485
-193.986756907834;-340.770812926581;-397.563385987538;-429.682654324191;-497.064712574705;-580.271117449389;12.879945496039;-148.3788608131;3427;0;-10;15042;5121;-1952;-153;-966;505281;500;13:24:29.005943
-50.8005042533332;-142.892120134667;-186.559044947964;-258.363876266463;-370.673165835848;-472.413589416421;-50.0580230118358;-110.898365494329;3427;0;-10;15042;5121;-1952;-153;-966;505282;500;13:24:29.005986
3.14998391692643;-94.5533453057287;-107.369386509177;-175.630287388805;-302.488970389822;-330.109567640582;-69.4769792912412;-102.70021141076;3427;0;-10;15042;5121;-1952;-153;-966;505283;500;13:24:29.006024
-15.1231078773271;-119.35798554949;-150.401468481286;-158.516478977661;-151.669692592579;-37.5264820529846;23.6426202480216;-66.775509503088;3427;0;-10;15042;5121;-1952;-153;-966;505284;500;13:24:29.006065
55.2760036843247;-18.6361559407087;-36.8721069404855;-29.316836345999;112.546699131606;347.797738467809;71.8735946724191;-46.2030034601921;3427;0;-10;15042;5121;-1952;-153;-966;505285;500;13:24:29.006107
15.4817241313576;6.29763724131044;52.3848019170109;49.5769661988306;150.860020746244;432.160061490256;-47.4499255613773;-127.247711156611;3427;0;372;15063;4977;-1773;865;-106;505286;500;13:24:29.006141
145.120648719952;122.344472219702;178.287389576319;154.314761286922;142.976644935552;396.202374624438;-5.28834199765697;-21.4448002960999;3427;0;372;15063;4977;-1773;865;-106;505287;500;13:24:29.006174
388.409540166584;357.180634641671;425.835271861171;434.625392810558;423.372527165513;455.084073887789;137.709063062386;196.324779495248;3427;0;372;15063;4977;-1773;865;-106;505288;500;13:24:29.049497
245.058980597503;207.471619974822;264.826631170581;266.220169843611;210.333349202119;98.8204164784402;83.1473219021573;88.3996478498448;3427;0;372;15063;4977;-1773;865;-106;505289;500;13:24:29.049539
107.463928764162;49.6865430254256;78.9870990603231;44.2577259069076;-115.328252935666;-255.979398417869;22.3074522495735;-25.1374256574782;3427;0;372;15063;4977;-1773;865;-106;505290;500;13:24:29.049572
-50.2794942743203;-166.748613815987;-184.034502635477;-221.640701290715;-353.443837924337;-482.120207804721;-16.904863041942;-112.412024871912;3427;0;372;15063;4977;-1773;865;-106;505291;500;13:24:29.049608
-242.819684817398;-455.00539538241;-561.026377541129;-564.703388705064;-593.540742290847;-657.718274455867;-60.5955699866754;-185.673642395181;3427;0;372;15063;4977;-1773;865;-106;505292;500;13:24:29.049644
-453.814612749527;-720.763446682831;-868.694925603224;-823.960112587869;-729.253952328989;-681.042011490557;-86.8446109993965;-297.762948520714;3427;0;372;15063;4977;-1773;865;-106;505293;500;13:24:29.049682
-564.769733569847;-807.281389603391;-910.138264399022;-853.372806687083;-668.469518815749;-463.561167643405;-53.1376747394097;-379.62217911426;3427;0;372;15063;4977;-1773;865;-106;505294;500;13:24:29.049721
-357.312046160485;-545.869788947864;-642.967013033456;-564.385911427729;-409.668669526058;-81.8286252549151;60.6438685195753;-226.913897014107;3427;0;372;15063;4977;-1773;865;-106;505295;500;13:24:29.049761
53.2744437719521;-3.48979926563334;-41.2331897619879;-41.4803313140001;-211.720892160956;242.471565368935;-16.8033907862846;-88.0286623522406;3427;0;245;14906;4871;-566;1002;402;505296;500;13:24:29.049802
116.882791222306;52.1377278702566;-21.3974451419199;-166.069427565875;-670.121797738364;-132.909956312156;-66.4516934879357;-61.1801857152022;3427;0;245;14906;4871;-566;1002;402;505297;500;13:24:29.049853
253.2294479142;191.536976475269;98.5598078564508;35.8588716226805;-576.211529172724;-259.136980144656;58.4282090617344;62.7225474386942;3427;0;245;14906;4871;-566;1002;402;505298;500;13:24:29.049898
203.02668877141;197.019662130508;208.071472463547;373.394851563789;290.676961912133;44.5271098897792;-44.8278107402148;-6.71748773113359;3427;0;245;14906;4871;-566;1002;402;505299;500;13:24:29.049945
107.730558949057;-0.298089483403601;-160.790802616975;-327.788784682751;-935.169958191342;-832.198245922686;-28.5368214890477;-8.70910362014547;3427;0;245;14906;4871;-566;1002;402;505300;500;13:24:29.049994
-66.873204569798;-283.595178700401;-663.171214848175;-1163.30276680324;-2224.17798401229;-1757.56733694999;-90.9541077918257;-97.1314331999747;3427;0;245;14906;4871;-566;1002;402;505301;500;13:24:29.050043
-4.76980130837183;-122.120029368903;-304.630170590477;-450.018117325963;-901.336562512559;-722.575174001628;-71.1011747279554;-100.9710620736;3427;0;245;14906;4871;-566;1002;402;505302;500;13:24:29.050094
19.7896403000632;102.930691968766;359.494266192429;968.880388150312;1842.97167410923;1282.33560613799;-54.474611032696;-144.508632237441;3427;0;245;14906;4871;-566;1002;402;505303;500;13:24:29.050148
5.28550661337795;-2.76929113315418;106.033283810131;411.348009432666;730.988975385437;545.256774615962;11.633774153539;-97.0659320730483;3427;0;245;14906;4871;-566;1002;402;505304;500;13:24:29.050203
59.5307839366433;11.1066045734333;69.3887680673506;283.104028428177;449.723285883432;560.683280306635;121.634735549334;7.4254042286193;3427;0;245;14906;4871;-566;1002;402;505305;500;13:24:29.050259
123.033783018414;94.3710243530804;142.511231127428;324.393550388369;420.388919549645;573.907653325005;94.1140119370539;40.0555938394973;3427;0;-237;14508;4898;573;800;16;505306;500;13:24:29.050319
179.77646324021;136.842099095578;149.127708239132;251.867653617752;265.198605548474;396.145081600058;79.8519716809969;83.2079409703147;3427;0;-237;14508;4898;573;800;16;505307;500;13:24:29.050379
275.553349021444;293.058256064774;333.536293423385;459.480270881031;404.097283004201;448.154734307784;65.7649005539133;122.836905901553;3427;0;-237;14508;4898;573;800;16;505308;500;13:24:29.050447
126.655540876207;153.163217055146;205.580092017888;344.495929857221;186.478142828622;82.1238802705193;-18.7048196106916;3.96051369851921;3427;0;-237;14508;4898;573;800;16;505309;500;13:24:29.050516
90.9117569003429;48.7965274645248;42.4451076638652;93.7969914155838;-152.649008387176;-280.333012616378;16.1368444014224;31.6554305203026;3427;0;-237;14508;4898;573;800;16;505310;500;13:24:29.050583
102.31684355333;45.1058644164586;12.5201681617182;14.1681788868154;-338.473268425441;-427.578397991252;-7.09450548142195;20.2471512648044;3427;0;-237;14508;4898;573;800;16;505311;500;13:24:29.050649
57.9256997544435;-1.27156987844501;-52.8064311791677;-93.2854409040883;-544.819873116328;-436.824993787217;-21.0917514839093;-4.93190563912503;3427;0;-237;14508;4898;573;800;16;505312;500;13:24:29.086282
71.7239164780767;66.2172748637386;67.5216363043291;133.511464701791;-35.0584545608726;-12.6656044287374;-68.7007483615307;-38.740053911577;3427;0;-237;14508;4898;573;800;16;505313;500;13:24:29.086305
236.396444108977;277.947689697845;377.143704590504;598.951278233057;770.437396913185;628.796620148816;8.50576777767856;67.9937333090929;3427;0;-237;14508;4898;573;800;16;505314;500;13:24:29.086321
222.116458007047;254.486518351827;324.142063714447;512.988555395976;603.897732870246;660.013462453266;54.9354203635012;99.8547554616816;3427;0;-237;14508;4898;573;800;16;505315;500;13:24:29.086339
165.27499383039;169.696072721272;213.158550898312;372.429402899201;450.34530411486;640.133520527277;62.0270074522123;92.5578803605167;3427;0;-652;14291;5131;1113;48;-127;505316;500;13:24:29.086357
267.142530323501;276.757103529526;291.370665014489;437.328904742462;476.573327414459;664.201558553963;159.458514044411;200.623064569081;3427;0;-652;14291;5131;1113;48;-127;505317;500;13:24:29.086376
273.321585803875;282.101943002548;302.013648208464;379.170003383508;332.524509128882;420.625232132734;135.423757359444;203.98126578622;3427;0;-652;14291;5131;1113;48;-127;505318;500;13:24:29.086395
137.307037458348;117.438355898368;126.68132088962;167.691831376113;49.1495300772949;32.0059467571555;35.1653660761076;96.9836908006109;3427;0;-652;14291;5131;1113;48;-127;505319;500;13:24:29.086415
21.8668075170426;-11.38617493934;-24.6040387725225;-5.37715098980698;-211.807460703945;-254.374449201976;-4.21761878015241;5.23092588991858;3427;0;-652;14291;5131;1113;48;-127;505320;500;13:24:29.086436
-51.3890854349302;-124.689072950743;-181.949178294279;-225.971981187991;-503.284730135405;-523.256149378605;-48.0773617412196;-77.4262815202819;3427;0;-652;14291;5131;1113;48;-127;505321;500;13:24:29.086457
-22.3660350125283;-109.372648635297;-180.310368877952;-236.110224024364;-470.122289362422;-460.82330139738;-49.6501620026538;-58.6798683789093;3427;0;-652;14291;5131;1113;48;-127;505322;500;13:24:29.086955
-93.0791698578105;-142.936769958586;-140.922592108021;-95.0631647483096;-146.187871721981;-196.427783965832;-87.9699858858366;-122.646196247893;3427;0;-652;14291;5131;1113;48;-127;505323;500;13:24:29.086981
-45.6435387988458;-81.6702441875823;-67.240034579183;40.2512678967032;93.2135961311287;112.373536108178;-65.1893042408046;-98.3592395756859;3427;0;-652;14291;5131;1113;48;-127;505324;500;13:24:29.087005
117.469829772454;86.1589981779689;88.9997134801233;206.667965663451;261.053310097486;423.276668360108;9.97800654143794;-10.7719534750795;3427;0;-652;14291;5131;1113;48;-127;505325;500;13:24:29.087036
186.123254577018;174.376828341745;199.560038972064;313.36108864579;364.18081387016;554.38759929419;35.5126819413272;5.16599467257038;3427;0;-543;14493;5172;1104;184;-54;505326;500;13:24:29.087064
329.436762711121;328.067169280257;335.563026902033;429.640761924296;427.250087045017;595.396071358817;130.289331118343;124.254322906607;3427;0;-543;14493;5172;1104;184;-54;505327;500;13:24:29.087091
390.454223785084;388.400723742321;382.404795969138;434.145662378112;388.152879872534;479.850912462804;232.821031106054;201.107024744386;3427;0;-543;14493;5172;1104;184;-54;505328;500;13:24:29.087120
356.288494706387;371.447142151184;370.015580301406;371.002527106728;250.154055905528;200.767953500617;195.93246631982;144.823858520715;3427;0;-543;14493;5172;1104;184;-54;505329;500;13:24:29.087156
314.585473206913;254.322327158065;194.792172783171;206.277490386507;32.3815282108844;-106.637623703456;153.534395021852;124.018984717666;3427;0;-543;14493;5172;1104;184;-54;505330;500;13:24:29.127110
256.497203245119;183.36875142972;91.3115220553009;92.2949861790694;-73.360673881718;-244.244561556727;119.609730230935;95.5190828178311;3427;0;-543;14493;5172;1104;184;-54;505331;500;13:24:29.127132
240.861610335007;229.562352363486;158.056404796545;143.7003907701;-36.6675360880326;-140.630652525695;139.766317310219;80.2900369579438;3427;0;-543;14493;5172;1104;184;-54;505332;500;13:24:29.127150
100.199791327526;93.3145203986205;21.2373472626787;59.3087220241141;-39.1872821495635;-67.1237807846628;110.972141477338;2.64200323005207;3427;0;-543;14493;5172;1104;184;-54;505333;500;13:24:29.127167
-29.7656819836411;-22.3543540518731;-27.4180446701357;109.130596343923;102.419185850129;206.204531839117;139.176726572216;-30.3116427841596;3427;0;-543;14493;5172;1104;184;-54;505334;500;13:24:29.127185
98.279538677627;139.68356687366;139.18443545152;283.53805363673;315.790503634664;487.042687594192;160.067413632234;36.5220476991963;3427;0;-543;14493;5172;1104;184;-54;505335;500;13:24:29.127205
299.252868294367;297.705013983417;258.982369904174;366.319252242858;383.385424442706;556.661705601844;131.003627740021;83.6385186075931;3427;0;-209;14901;5073;545;567;74;505336;500;13:24:29.127224
439.073707400297;422.935302730883;354.417963930755;450.039814916352;422.296294978412;571.72719556035;171.859885381244;209.663028337061;3427;0;-209;14901;5073;545;567;74;505337;500;13:24:29.127244
436.01929098391;421.373113807524;368.154421858955;442.266322543117;368.286281935929;428.576461995486;192.324269261211;232.743420063634;3427;0;-209;14901;5073;545;567;74;505338;500;13:24:29.127265
286.905208684038;267.770721243462;175.005671812454;193.09220736858;40.6623148228391;-17.8835518660489;116.132163158443;123.358201781753;3427;0;-209;14901;5073;545;567;74;505339;500;13:24:29.127287
155.541921635333;112.100998254726;10.0994670613436;7.64068266688264;-243.122085556912;-408.086489290115;61.7556465495145;30.2403216067469;3427;0;-209;14901;5073;545;567;74;505340;500;13:24:29.127311
-31.8243100546533;-64.48531080666;-134.860381031642;-72.1456425154465;-348.453752666363;-531.051612919196;-28.7128607545164;-90.5345472514164;3427;0;-209;14901;5073;545;567;74;505341;500;13:24:29.127335
-111.51239085797;-162.345447525498;-238.254853897728;-215.52628778544;-337.181817451783;-376.198869784945;-116.062994143867;-142.2229018301;3427;0;-209;14901;5073;545;567;74;505342;500;13:24:29.127359
-97.7825620204094;-183.452437626664;-257.867866305751;-227.920948815212;-381.687207598588;-271.958709368133;-134.743013978412;-99.8480513448594;3427;0;-209;14901;5073;545;567;74;505343;500;13:24:29.127384
-37.5142775636341;-120.81396268215;-198.71988214727;-178.539616410708;-367.984563733742;-86.5286712215748;-118.403355000366;-78.8671252339846;3427;0;-209;14901;5073;545;567;74;505344;500;13:24:29.127411
157.152352858742;98.0589458481409;60.4340169215575;78.918773671292;-45.3835064755986;281.425951694488;-62.5132464712951;41.2295167879201;3427;0;-209;14901;5073;545;567;74;505345;500;13:24:29.127438
258.950943640753;252.582491415087;224.924618769903;315.271539244772;319.896820805559;450.000310001196;-130.543169993965;97.2187798302621;3427;0;-129;15178;5008;-28;655;48;505346;500;13:24:29.127467
236.243593657477;223.310895557515;175.684309020988;182.961773294926;-107.437758522225;128.522463654168;-181.81848581438;112.755193500663;3427;0;-129;15178;5008;-28;655;48;505347;500;13:24:29.127496
113.442166602763;32.4154338276712;-116.415827234974;-260.732987391617;-803.705616515654;-491.044734695926;-218.533903480158;109.211988255731;3427;0;-129;15178;5008;-28;655;48;505348;500;13:24:29.127526
-32.6738452317368;-163.053654430318;-370.082581086201;-573.664705259405;-1036.11127644137;-774.919349423377;-217.019893334073;-12.5470619024709;3427;0;-129;15178;5008;-28;655;48;505349;500;13:24:29.127559
-73.6142909418559;-110.620030975784;-213.131095282501;-287.412059251103;-384.12109672185;-297.983921161271;-198.622589052015;-163.591248754994;3427;0;-129;15178;5008;-28;655;48;505350;500;13:24:29.191889
-203.477756658947;-213.861269220477;-237.999307260383;-105.091184767749;-89.0627306947135;-397.403053109068;-150.634846384521;-269.017967940657;3427;0;-129;15178;5008;-28;655;48;505351;500;13:24:29.191955
-168.737137493095;-122.024334275397;-64.7921225989703;271.718784771772;670.368989784445;108.632672439096;-92.3092475068988;-253.868029098492;3427;0;-129;15178;5008;-28;655;48;505352;500;13:24:29.192008
-131.442494406016;-101.885441525024;-71.6259610882262;119.114521721145;324.188613690902;230.721264278283;54.7287781023188;-161.385110546369;3427;0;-129;15178;5008;-28;655;48;505353;500;13:24:29.192059
-152.245707786205;-154.537521000137;-163.833829818992;-2.77007694929489;142.311710095208;266.807749768021;80.6789179140469;-149.550473440904;3427;0;-129;15178;5008;-28;655;48;505354;500;13:24:29.192116
-115.145877193776;-135.970041887136;-165.446630161256;-39.6578059136518;97.8499643340474;286.533185720444;-9.96648296067724;-135.870265522623;3427;0;-129;15178;5008;-28;655;48;505355;500;13:24:29.192172
-41.7362130782858;-70.9230207223445;-84.5518581701908;11.3663410723675;135.42680516775;359.663351761061;-17.9923339995439;-74.6557417995064;3427;0;-375;15187;5004;-323;324;68;505356;500;13:24:29.192230
112.245556293405;149.332652933896;179.179092880571;315.15816278127;437.859336571943;548.134485540213;-14.9860446683015;12.6284240805544;3427;0;-375;15187;5004;-323;324;68;505357;500;13:24:29.192291
236.475128836639;307.207176897558;321.353781158221;405.463456154772;402.599215497787;380.456844964647;-10.0292168642045;117.703284435323;3427;0;-375;15187;5004;-323;324;68;505358;500;13:24:29.192354
74.9326309261087;68.5808661695337;-10.2890732496744;4.7082099718682;-106.253353353997;-203.508976224926;-113.452240059036;7.8059205081081;3427;0;-375;15187;5004;-323;324;68;505359;500;13:24:29.192691
-52.7956113172695;-120.362136333133;-288.102712053689;-382.09894297368;-657.440859495837;-758.311932188808;-57.5736252530478;-51.0320566222072;3427;0;-375;15187;5004;-323;324;68;505360;500;13:24:29.192767
-16.9460907846806;-84.3417630339973;-251.393174453406;-396.374601999123;-882.726884151343;-897.727135054651;-1.3968078212929;-43.5460188579746;3427;0;-375;15187;5004;-323;324;68;505361;500;13:24:29.192837
-54.0870663726528;-63.6740911718225;-100.851374394028;-34.8203449596476;-129.306098914589;-257.262788965832;24.2661497527151;-83.8515784514602;3427;0;-375;15187;5004;-323;324;68;505362;500;13:24:29.192907
-73.8684232687228;-44.2557618126739;-54.5414242157713;62.8524728614429;78.088181293977;-24.2723611068213;-120.322932996787;-148.494176604785;3427;0;-375;15187;5004;-323;324;68;505363;500;13:24:29.192982
34.7934140053694;114.046290206257;123.360610332689;256.690239188785;334.564300993108;364.808879998978;-35.5337940786267;-57.2992840041406;3427;0;-375;15187;5004;-323;324;68;505364;500;13:24:29.193058
131.165727175248;228.629675903707;239.411418956937;343.753963623458;259.8881939727;328.662354276516;91.9227432517218;42.6964934733696;3427;0;-375;15187;5004;-323;324;68;505365;500;13:24:29.193137
90.1861735949933;129.111490956158;70.7859231847106;163.392962506536;213.959329064935;437.047536560218;134.30933186179;58.9609249109635;3427;0;-642;15010;5105;-409;-258;88;505366;500;13:24:29.193220
128.220783428405;145.111828565714;115.931373588392;234.708183984971;347.469952091284;531.143375851098;120.511543318746;88.9323837431148;3427;0;-642;15010;5105;-409;-258;88;505367;500;13:24:29.193305
164.781647095224;179.787843070808;171.43971638137;294.192416352336;301.419101908337;375.606755178771;113.837555219186;107.594866187777;3427;0;-642;15010;5105;-409;-258;88;505368;500;13:24:29.193394
101.504852462414;92.7867300744401;61.2862724146107;146.223052199639;79.044663729961;52.0670991089428;-41.8194972583442;33.6016696837032;3427;0;-642;15010;5105;-409;-258;88;505369;500;13:24:29.193481
134.413907989627;125.124238832854;86.6617487543263;179.963843586389;31.3622039365582;-97.5036792067112;-190.56235963339;13.1997218375327;3427;0;-642;15010;5105;-409;-258;88;505370;500;13:24:29.193586
132.125607906142;138.171834278619;93.8295076568611;155.638941356767;-43.5509318583645;-249.177803672734;-301.665404990315;-41.7290876825573;3427;0;-642;15010;5105;-409;-258;88;505371;500;13:24:29.194927
131.848192748963;134.157386154635;68.1104485170217;98.8180710352317;-106.595647858398;-338.329549456132;-242.432312559104;-19.4518552074442;3427;0;-642;15010;5105;-409;-258;88;505372;500;13:24:29.195073
128.587830424833;127.206567684188;60.59732542641;86.4277292937331;-87.3616956136539;-144.130767180235;56.557198061666;31.3665883203503;3427;0;-642;15010;5105;-409;-258;88;505373;500;13:24:29.195179
173.062959620118;193.874783960287;112.800424330868;118.907307835732;-64.3895211275667;51.6235342883738;155.048997779842;57.6992787370691;3427;0;-642;15010;5105;-409;-258;88;505374;500;13:24:29.195302
88.7826315559214;75.8597914498532;27.2102081332123;22.7833520802378;-96.3577383950469;188.287727057817;47.5930327023962;8.17615023360122;3427;0;-642;15010;5105;-409;-258;88;505375;500;13:24:29.195660
47.288642127387;17.9466039028484;-23.5248664144892;-75.1223571952723;-303.816053338698;231.813236709218;139.232601384283;3.98971971077845;3427;0;-687;14871;5236;-312;-620;1;505376;500;13:24:29.195788
-22.5076749405125;-47.1940481987549;-80.5816712571541;-145.965086643148;-503.703014479368;7.46836377715226;86.6228645672672;-34.9257077056682;3427;0;-687;14871;5236;-312;-620;1;505377;500;13:24:29.195910
70.5491387667425;83.2548870586324;122.444979611202;270.024512667354;212.178769816586;115.848542179679;59.5103675608989;24.0333395181224;3427;0;-687;14871;5236;-312;-620;1;505378;500;13:24:29.196049
41.2040613909194;88.8469939295901;131.138433490414;217.722946820199;205.602594752272;64.8650844827062;39.690335934225;-25.0694245852064;3427;0;-687;14871;5236;-312;-620;1;505379;500;13:24:29.196171
21.16754021612;8.90360188519116;25.4373581011314;130.291106059012;187.175520300691;8.55327683966607;51.916137217253;-51.6956002899678;3427;0;-687;14871;5236;-312;-620;1;505380;500;13:24:29.196292
-51.2881516394846;-148.547776443069;-152.481963378144;-77.2910588148807;-162.940040647169;-317.354642378283;34.174839684274;-47.1811101936037;3427;0;-687;14871;5236;-312;-620;1;505381;500;13:24:29.196425
-138.736957831512;-220.552414220525;-246.686282425537;-217.684433480899;-377.5025183736;-504.030736092478;-14.1523830318474;-94.3959517942276;3427;0;-687;14871;5236;-312;-620;1;505382;500;13:24:29.241950
-193.288394781528;-269.786799858441;-349.641979261301;-303.64750727237;-359.815376738145;-366.382082811091;-28.088175115874;-117.167568679783;3427;0;-687;14871;5236;-312;-620;1;505383;500;13:24:29.241976
-68.2766895689419;-109.709052186925;-117.39951637038;-35.7452473774611;-52.1610792229185;7.06737278134096;0.882252502022311;-51.2068020277657;3427;0;-687;14871;5236;-312;-620;1;505384;500;13:24:29.241997
57.1640625055879;53.3427080446854;49.3413334420184;151.300688494346;165.197405282001;303.309501209762;42.4095695069409;18.9009984367294;3427;0;-687;14871;5236;-312;-620;1;505385;500;13:24:29.242017
259.542045835522;287.893438360072;295.485211849445;391.654683282773;400.703745921899;550.127981511992;113.229025220498;142.788608800969;3427;0;-376;14837;5228;-123;-430;-137;505386;500;13:24:29.242039
365.970435729163;417.147978809779;421.281635153806;500.798544047633;471.272760682041;609.999591583735;140.428567760158;202.517514891108;3427;0;-376;14837;5228;-123;-430;-137;505387;500;13:24:29.242062
346.837123890262;398.691342615173;388.478694930905;442.604159468145;375.980150657764;448.487930037198;192.126594892354;198.886576114688;3427;0;-376;14837;5228;-123;-430;-137;505388;500;13:24:29.242085
124.211151167721;143.937933772919;107.633581502945;125.751353087253;-15.2673498575459;-44.9231470158556;130.878159050015;73.0623848134419;3427;0;-376;14837;5228;-123;-430;-137;505389;500;13:24:29.242109
82.241003664356;64.2783003599616;4.19698899216019;-10.2627465577389;-200.891672582482;-318.515380316996;110.139299559116;101.843524683383;3427;0;-376;14837;5228;-123;-430;-137;505390;500;13:24:29.242134
-11.8768072509847;-43.2077213389566;-89.998099858989;-117.746773739316;-309.659098924429;-461.479021949461;64.8114453699673;48.7740602897247;3427;0;-376;14837;5228;-123;-430;-137;505391;500;13:24:29.242162
-101.837586615293;-138.418572204653;-169.100918213371;-189.102819986758;-346.500122342492;-432.70864018565;58.803199728427;14.2528376244009;3427;0;-376;14837;5228;-123;-430;-137;505392;500;13:24:29.242189
-120.114970384137;-123.12292546255;-137.897189529729;-120.435886436491;-219.893097846769;-218.450007719803;40.9427216992481;-10.8941326981876;3427;0;-376;14837;5228;-123;-430;-137;505393;500;13:24:29.242218
-66.609664932359;-39.4449644647539;-37.5154780356679;-26.7843253625324;-106.783448287286;11.0290036268998;31.2536461760756;-6.90800255117938;3427;0;-376;14837;5228;-123;-430;-137;505394;500;13:24:29.242248
-53.5197623417189;-22.3976661608322;-0.991859609261155;-12.8071738888684;-94.456730894919;140.254753131769;-33.965451654105;-39.7399918283336;3427;0;-376;14837;5228;-123;-430;-137;505395;500;13:24:29.242280
-12.7663286638854;26.2375081072096;32.0944583312375;22.8583539585234;15.106893702643;212.2114599786;-24.8315475879936;-2.59818232944235;3427;0;-25;14946;5161;-106;39;5;505396;500;13:24:29.242311
47.3536096964963;72.2768129205797;59.7976095987251;75.9650331877347;153.114102630119;262.392586749047;61.7014778675511;77.8047449762234;3427;0;-25;14946;5161;-106;39;5;505397;500;13:24:29.242344
57.0336090386845;102.832157205441;104.04614954174;109.524365939171;199.954729571939;319.886736489017;102.432890797092;87.6383226023754;3427;0;-25;14946;5161;-106;39;5;505398;500;13:24:29.242377
-128.18378206846;-90.5910154803423;-102.686022891896;-127.638669245905;-173.15835557034;-133.141481765546;-27.2789754533442;-61.6537426955765;3427;0;-25;14946;5161;-106;39;5;505399;500;13:24:29.242412
-235.558464664588;-252.77655725705;-305.838785272092;-373.760001781367;-527.692828527477;-548.70725853031;-82.8264739953447;-142.498055276577;3427;0;-25;14946;5161;-106;39;5;505400;500;13:24:29.242449
-126.933833251765;-177.408969234559;-271.918490919517;-402.143954512838;-669.09251595824;-640.069440062623;-23.3962335172691;-54.3840865324019;3427;0;-25;14946;5161;-106;39;5;505401;500;13:24:29.242487
-76.3042453301314;-108.938076077378;-181.767581491498;-321.839332115196;-648.707028125296;-598.097340407548;-47.1881708111614;-39.9118144388776;3427;0;-25;14946;5161;-106;39;5;505402;500;13:24:29.242526
-31.2726486942265;-11.5055732401088;-86.7728521111421;-232.587450671475;-522.219808857131;-475.138721646625;-101.487281940412;-36.5499128111405;3427;0;-25;14946;5161;-106;39;5;505403;500;13:24:29.242566
58.9101569761115;156.260393047356;153.119707039557;99.0268321809417;123.431398205168;108.39507188939;-127.279437911988;-10.3723956763279;3427;0;-25;14946;5161;-106;39;5;505404;500;13:24:29.242610
56.5398066758644;148.019598000217;166.417609817116;223.771847843658;456.928621941886;514.706931130495;-81.1947804269148;37.3410462785978;3427;0;-25;14946;5161;-106;39;5;505405;500;13:24:29.243171
146.61524273039;209.438145051012;190.474130923976;201.863333789952;259.557736411691;370.357938612928;26.9235809386009;147.063201765879;3427;0;37;15009;5068;-24;378;202;505406;500;13:24:29.243219
255.435006102663;354.549925150117;355.334737448604;391.888447500009;291.215552794456;311.271708743996;69.0972146872664;210.690814033267;3427;0;37;15009;5068;-24;378;202;505407;500;13:24:29.243270
211.836391644989;313.992603382096;316.392158394912;399.657109747874;565.934445470048;510.291412022663;112.728973224352;153.272290209658;3427;0;37;15009;5068;-24;378;202;505408;500;13:24:29.302374
-15.0691433654865;75.1801799668465;57.311800781521;117.13916542611;340.327354289533;205.957647542586;-85.6689024842926;-42.5596934038913;3427;0;37;15009;5068;-24;378;202;505409;500;13:24:29.302438
16.2522632838518;72.877430560533;12.1387561754091;-22.7308606619772;-28.5564497244195;-148.246029285365;-220.967336222238;-35.2077433019876;3427;0;37;15009;5068;-24;378;202;505410;500;13:24:29.302487
-15.4241195289651;17.932025561342;-57.3143085616175;-131.040934166667;-290.476710193325;-442.370864929166;-309.848935258691;-97.5084613688523;3427;0;37;15009;5068;-24;378;202;505411;500;13:24:29.302546
-6.95447691719164;53.1092308197403;7.26419442286715;-77.0064121663745;-429.865206792427;-585.730916694971;-225.690334149753;-82.508890011115;3427;0;37;15009;5068;-24;378;202;505412;500;13:24:29.302602
-160.570972441346;-95.9979959850898;-153.550691796932;-232.330361421045;-610.227269858122;-554.365881301346;-25.3117757192813;-152.161827462725;3427;0;37;15009;5068;-24;378;202;505413;500;13:24:29.302658
-212.888204597257;-197.527102786698;-238.814101089025;-295.274626190076;-336.158505545696;-131.834744101041;36.4222430503578;-150.382995787426;3427;0;37;15009;5068;-24;378;202;505414;500;13:24:29.302715
-121.444292075379;-111.950028251158;-142.141563864658;-111.965938802372;198.837434408371;376.849727972527;98.3776555589284;-51.2333426672267;3427;0;37;15009;5068;-24;378;202;505415;500;13:24:29.302774
-32.1312969447463;-4.58106882940046;-16.8582915272564;53.1580739050114;406.164589597087;471.731078234152;85.0245492172544;-8.96963475225493;3427;0;-146;14930;5013;314;291;126;505416;500;13:24:29.302835
-122.806696618703;-142.020572948386;-118.719278849429;-66.9997283233388;194.507053858251;322.934967736481;88.7285452187061;-45.7393128157128;3427;0;-146;14930;5013;314;291;126;505417;500;13:24:29.302896
-32.4768632442574;-58.120257086237;-35.4605246994179;-40.5674356051313;102.747090532735;177.971820289036;133.126402845257;3.41415690153372;3427;0;-146;14930;5013;314;291;126;505418;500;13:24:29.302963
-183.760378543695;-248.545620394405;-274.220148406806;-321.531233565125;-258.170009390102;-282.193098032847;-39.6720839258051;-127.914403846255;3427;0;-146;14930;5013;314;291;126;505419;500;13:24:29.303031
-126.448256377276;-191.127903142711;-221.801004486857;-310.787369451689;-336.320952955284;-432.51412486122;6.32555192371365;-59.8424285639776;3427;0;-146;14930;5013;314;291;126;505420;500;13:24:29.303100
-133.446639066213;-190.069501665072;-229.652536788723;-331.965361033712;-405.532796495128;-525.291209039162;1.06746892380761;-74.1053713978035;3427;0;-146;14930;5013;314;291;126;505421;500;13:24:29.303172
-143.333630664041;-178.085651479079;-230.44078689185;-318.084742183273;-379.458528307674;-496.645801282255;-47.8498302313383;-110.049711958156;3427;0;-146;14930;5013;314;291;126;505422;500;13:24:29.303248
-14.960799156077;-21.1575100946939;-73.2044944227673;-144.371832042612;-171.839415038412;-204.995864000521;-3.73597748205066;-17.3475983781973;3427;0;-146;14930;5013;314;291;126;505423;500;13:24:29.303326
-16.3837482343079;6.61224637471605;-27.2409600781975;-59.2784806965792;-25.4373018710758;55.1951463946607;-25.7601186886895;-23.1895873941248;3427;0;-146;14930;5013;314;291;126;505424;500;13:24:29.303406
71.6488801444357;98.6284677380463;84.730659124325;123.13544702853;182.73732714681;286.297368281055;-5.77087191736791;36.629541542381;3427;0;-146;14930;5013;314;291;126;505425;500;13:24:29.303490
154.604376422765;183.529259571922;153.56332845299;127.3734992299;35.525209470652;237.247182098567;49.7438450991758;99.6752077330602;3427;0;-379;14872;5067;340;49;53;505426;500;13:24:29.303581
150.06194724841;170.969235872617;122.155774931191;-64.2143867729756;-389.09264727711;110.294262352632;74.7509641128127;131.123525568401;3427;0;-379;14872;5067;340;49;53;505427;500;13:24:29.303670
96.8767882416723;83.0346348827006;61.323252671049;-119.25148978256;-478.468920892745;107.153173803934;83.5429255113704;148.261530186748;3427;0;-379;14872;5067;340;49;53;505428;500;13:24:29.303765
-47.0726621626527;-77.3423364666523;-129.926518402295;-272.971248573827;-553.791606407904;-197.0580158761;-40.9401845564134;30.0302078247769;3427;0;-379;14872;5067;340;49;53;505429;500;13:24:29.303861
-142.516575122369;-178.076229754719;-262.139360598172;-408.860732276371;-647.033128473151;-784.655213251244;-117.161090021662;-72.813392684795;3427;0;-379;14872;5067;340;49;53;505430;500;13:24:29.303956
-177.138233238016;-233.820353252464;-304.247448870563;-347.269194472523;-260.099175735551;-638.455285845906;-103.982146834664;-75.9889620265458;3427;0;-379;14872;5067;340;49;53;505431;500;13:24:29.304083
-229.208025722473;-253.084314631764;-246.443134579575;-207.927220950893;-224.804433921468;-454.306178645347;-159.532193864579;-162.596581707825;3427;0;-379;14872;5067;340;49;53;505432;500;13:24:29.304197
-197.143900026073;-205.516781353974;-235.063330908655;-314.778753025021;-481.109287081286;-509.944230846711;-174.632431708451;-171.597818104317;3427;0;-379;14872;5067;340;49;53;505433;500;13:24:29.304306
-103.860181888071;-90.9604533172678;-84.6919351526303;-145.015873099997;-70.3720605789567;-96.8129811182152;-137.8624427467;-138.742572806892;3427;0;-379;14872;5067;340;49;53;505434;500;13:24:29.304416
89.6248206191231;166.262094394653;264.541719981818;361.500208205107;608.518938946479;537.737107678666;-55.8338935303036;-7.91129327844828;3427;0;-379;14872;5067;340;49;53;505435;500;13:24:29.304531
33.2472765153507;147.979488572571;364.942243102938;680.81500009555;1296.79562613321;1016.27375389903;-71.2209011389641;-59.5753243828658;3427;0;-419;14920;5093;53;-67;-23;505436;500;13:24:29.365512
166.384254076256;248.175194494077;349.793842570391;430.673902084702;554.375432850095;522.87326426385;36.811574292602;64.3074983352562;3427;0;-419;14920;5093;53;-67;-23;505437;500;13:24:29.365546
206.427455078432;241.772831978742;210.602604640415;145.87726763502;-91.3456234327168;-35.9359717154875;69.9562901967438;137.947203433723;3427;0;-419;14920;5093;53;-67;-23;505438;500;13:24:29.365571
13.4258756702184;24.7667246146593;-4.37090956803877;-87.6687778572959;-491.494083633064;-667.265188202728;-122.896049269708;-31.8121953383088;3427;0;-419;14920;5093;53;-67;-23;505439;500;13:24:29.365598
26.5519268091884;94.6810158618027;223.569901168346;326.646433617047;191.588435600162;-347.619078594376;-122.535975351639;-56.3509561289102;3427;0;-419;14920;5093;53;-67;-23;505440;500;13:24:29.365625
-60.8553537910338;39.5002302243374;199.225139721879;377.032527363248;564.034354463569;-34.9322548258351;-168.881665804191;-125.299652994145;3427;0;-419;14920;5093;53;-67;-23;505441;500;13:24:29.365652
11.8306846263586;-40.8304203430889;-117.978577008587;-315.553854056692;-430.619043433166;-366.121442968375;-96.3861665899749;3.37934847816359;3427;0;-419;14920;5093;53;-67;-23;505442;500;13:24:29.365681
106.46473279607;52.7555386875756;-162.904985222034;-546.330654670397;-1025.27344067802;-512.298611979117;22.9076243246091;123.495072548161;3427;0;-419;14920;5093;53;-67;-23;505443;500;13:24:29.365711
189.975367924257;252.495341118076;199.178259058739;71.4739624193753;-141.717180843989;97.6231784573756;116.860885824659;151.675056094769;3427;0;-419;14920;5093;53;-67;-23;505444;500;13:24:29.365741
127.348726965778;344.393816355034;534.86963883508;721.310590615816;1003.09742332489;936.436156819575;61.5680951194372;53.2914049557876;3427;0;-419;14920;5093;53;-67;-23;505445;500;13:24:29.365774
253.317207252956;498.730930205551;648.717544262996;881.036928780784;1459.81645211333;1213.20826221094;57.6444359427551;110.164934251457;3427;0;-267;14997;5036;86;218;39;505446;500;13:24:29.365811
226.653242617205;323.184870829806;385.482192960219;494.161106551852;833.553815361171;792.841586536495;51.7800206824904;120.61158603488;3427;0;-267;14997;5036;86;218;39;505447;500;13:24:29.365845
36.3452247812529;64.356140788761;72.8504027230665;174.703150720859;417.803376109456;431.355570896296;103.624092001934;89.1857063107891;3427;0;-267;14997;5036;86;218;39;505448;500;13:24:29.366526
-98.9191328828165;-135.593114488409;-208.055258614011;-207.353324664815;-153.758532810898;-151.213598888949;31.5921396096819;28.3363801777596;3427;0;-267;14997;5036;86;218;39;505449;500;13:24:29.366566
-228.515467009827;-349.93380562216;-563.950812874595;-803.254792242573;-1134.55653544638;-950.09472726204;-22.6478430222487;-8.89801746990997;3427;0;-267;14997;5036;86;218;39;505450;500;13:24:29.366613
-295.865936659684;-420.472147470689;-669.924549856805;-1032.94082648188;-1464.08313574537;-1190.41434761253;-93.1032844720758;-63.5545224166708;3427;0;-267;14997;5036;86;218;39;505451;500;13:24:29.366656
-250.070408490108;-331.113718248787;-444.624858214869;-801.60102273064;-1067.97742797568;-789.701085053035;-152.737775286543;-130.444694763282;3427;0;-267;14997;5036;86;218;39;505452;500;13:24:29.366697
-124.343507519923;-206.089578940067;-297.645943536074;-669.512090862263;-864.594367175363;-367.129728710628;-148.021806944686;-67.3074204225559;3427;0;-267;14997;5036;86;218;39;505453;500;13:24:29.366743
-66.7627846104733;-149.199634682736;-260.809143122868;-609.602382163197;-819.735364768421;-285.707208881504;-146.340162468958;-28.8058634401532;3427;0;-267;14997;5036;86;218;39;505454;500;13:24:29.366796
-4.92976907858974;-22.4582828886341;-104.178822404123;-328.811479311931;-400.762046687014;-82.0657317800215;-103.930179429997;-1.71518613724038;3427;0;-267;14997;5036;86;218;39;505455;500;13:24:29.366847
90.9123997539864;172.263465710566;289.992466738215;334.059412151139;959.041386550234;872.295605604537;13.478989765048;26.031001094263;3427;0;-215;14981;5003;-131;465;150;505456;500;13:24:29.366916
131.891842593788;257.222206775798;441.724676030106;563.315974469646;1141.1305529527;853.752171516302;83.7091161253629;65.3546329026576;3427;0;-215;14981;5003;-131;465;150;505457;500;13:24:29.366967
266.760263516131;395.76595202426;577.632302464102;633.669355155405;941.289974329935;667.463689131779;148.090205493267;186.665575292078;3427;0;-215;14981;5003;-131;465;150;505458;500;13:24:29.367025
115.7225697666;191.709086738643;363.015132576576;475.551417140843;878.063789148058;385.094477274804;-42.7375423173071;59.0114610296441;3427;0;-215;14981;5003;-131;465;150;505459;500;13:24:29.367078
78.859797903162;91.555047320202;233.544763840735;262.745833622175;292.882170486089;-215.737459742348;-137.768439641455;31.3300355672836;3427;0;-215;14981;5003;-131;465;150;505460;500;13:24:29.367128
85.185358095594;58.235376609955;105.682036049897;-46.7872069211735;-655.670654994668;-939.238611445413;-133.226321166323;46.7241517901421;3427;0;-215;14981;5003;-131;465;150;505461;500;13:24:29.367180
140.122151519492;96.8792435659561;42.0179051567102;-356.428002555011;-1087.52928555326;-1004.75163876917;-33.3360543345916;106.642778486479;3427;0;-215;14981;5003;-131;465;150;505462;500;13:24:29.367250
101.949002638896;61.4995072410675;1.00957050826401;-404.807788384729;-675.230415445636;-322.109930484439;22.5770181278931;100.22171361756;3427;0;-215;14981;5003;-131;465;150;505463;500;13:24:29.367315
-64.9384626091341;-108.590319869691;-57.3741318662651;-104.756336754595;369.931340400479;535.862766176346;27.1099119283608;6.42722941178363;3427;0;-215;14981;5003;-131;465;150;505464;500;13:24:29.367376
-283.401617815485;-333.195372701739;-275.019648883143;-197.996306962945;320.830833857064;264.141916277353;-53.8770438625943;-113.027367375209;3427;0;-215;14981;5003;-131;465;150;505465;500;13:24:29.367444
-86.7208190024248;-235.98996934481;-409.443008592236;-772.031090531178;-1416.04402976594;-965.148746190011;3.28645155025879;60.1818581094267;3427;0;-282;14904;5010;130;274;289;505466;500;13:24:29.367507
-64.4108397497039;-310.913551829988;-532.234186915914;-1009.93712143335;-2305.37039162731;-1339.33477115317;20.9798653952312;144.769789718091;3427;0;-282;14904;5010;130;274;289;505467;500;13:24:29.367576
175.253498544014;133.846253868891;139.538441053941;36.106352476083;-176.424315862707;239.940972105134;59.3201757738134;193.514602669049;3427;0;-282;14904;5010;130;274;289;505468;500;13:24:29.367683
-105.823736630206;69.2173621613765;470.011611948488;1118.77291586471;2628.52139464085;1507.32417656947;-160.200914563145;-137.967971768696;3427;0;-282;14904;5010;130;274;289;505469;500;13:24:29.367755
-59.4254896762723;-63.1756640538806;68.9171756932046;159.639280638425;852.940829640138;395.692733558128;-33.1381662405911;-0.232378252781928;3427;0;-282;14904;5010;130;274;289;505470;500;13:24:29.428481
-8.63559315082966;-103.481999381795;-124.446926110773;-423.811986118351;-483.126620773284;-440.717102614115;8.86445729318075;64.2334742507664;3427;0;-282;14904;5010;130;274;289;505471;500;13:24:29.428514
86.2389693953155;5.78100546461064;-74.9048489134293;-383.837895299774;-638.813647303788;-649.548269334016;124.87318260246;152.735425454797;3427;0;-282;14904;5010;130;274;289;505472;500;13:24:29.428538
9.00101161416387;-1.59524220624007;26.690046951524;-158.51738102542;-542.10735723906;-434.397683518939;66.5164596073446;66.2205887743039;3427;0;-282;14904;5010;130;274;289;505473;500;13:24:29.428565
-44.4166007544845;-6.89182144287042;120.058972468367;123.620365758659;243.072467393184;240.175201564678;14.8483532813261;-4.31026951468084;3427;0;-282;14904;5010;130;274;289;505474;500;13:24:29.428592
30.0341229961195;27.6278636337956;114.87007765274;119.012286196521;526.533159166633;829.796252399916;89.0369179199333;106.901641187491;3427;0;-282;14904;5010;130;274;289;505475;500;13:24:29.428620
81.6915226867422;74.6340906624682;184.27244525135;235.694128558884;652.402713232092;871.423688227427;88.7583109770203;135.233368135872;3427;0;-320;14927;5032;787;151;469;505476;500;13:24:29.428648
157.544285886106;187.631384845125;386.956646613195;624.189848635375;1311.31033375708;949.265712746885;90.4671936405939;160.224749147194;3427;0;-320;14927;5032;787;151;469;505477;500;13:24:29.428678
163.87513901433;160.085748334881;345.61423619499;473.174115647329;958.25444380776;580.900085073547;52.4013357069343;135.210442284821;3427;0;-320;14927;5032;787;151;469;505478;500;13:24:29.428709
-102.165976139018;-119.533738524071;26.5255852469709;92.4827941365656;315.420961307886;-61.1372050645296;-169.034279953106;-101.164752366487;3427;0;-320;14927;5032;787;151;469;505479;500;13:24:29.429324
-104.519282989408;-170.076291162404;-82.8739032197045;-95.6401021654892;-171.329107960686;-496.405191378086;-107.461564034631;-43.4165061578387;3427;0;-320;14927;5032;787;151;469;505480;500;13:24:29.429368
-110.814086794911;-257.743363465182;-284.316128985723;-577.546391791286;-924.280486515781;-894.418271387345;-70.503452223551;-25.1438115421915;3427;0;-320;14927;5032;787;151;469;505481;500;13:24:29.429404
-215.406816425821;-358.218000879278;-346.094638663228;-555.545175742242;-568.709493634175;-569.941130235209;-118.472534629866;-152.185273510055;3427;0;-320;14927;5032;787;151;469;505482;500;13:24:29.429440
-195.460420888092;-252.712141483789;-113.932938754326;-63.7549218026397;414.466136113391;88.3800919564674;-106.213162864733;-135.528575449483;3427;0;-320;14927;5032;787;151;469;505483;500;13:24:29.429495
-116.130667418474;-125.657742032898;38.8155727169942;101.910140670341;506.87606921047;242.597453073366;-67.2715675118379;-56.4685506854439;3427;0;-320;14927;5032;787;151;469;505484;500;13:24:29.429534
-31.8245363469468;-26.0224491927074;130.030287914909;203.890139367897;549.418549873226;387.923233264475;-19.8699122925755;5.70646120526362;3427;0;-320;14927;5032;787;151;469;505485;500;13:24:29.429578
44.4738190796343;30.6322927026777;161.469797889818;190.307808559097;513.89600300428;369.438348046853;-16.7842574197566;45.2424003966153;3427;0;-303;15023;5043;928;2;479;505486;500;13:24:29.429627
156.586241539684;145.209368818672;204.435317366966;56.6443255883642;196.572951054492;265.707625080249;-4.79276067356113;141.920130963204;3427;0;-303;15023;5043;928;2;479;505487;500;13:24:29.429673
289.154898663779;342.818363377708;508.211542092846;469.220747720625;400.946673591738;217.917894428829;-53.5693466620287;192.666416579043;3427;0;-303;15023;5043;928;2;479;505488;500;13:24:29.429720
138.826520421018;176.222556257388;396.763364690007;570.552725189569;766.720619081694;-73.7451804863522;-276.634062743105;27.1284901569597;3427;0;-303;15023;5043;928;2;479;505489;500;13:24:29.429772
45.0260156367149;86.231225879048;298.616322254878;508.616259283357;719.467042812728;-338.906960342196;-298.153076910647;-33.9874250998255;3427;0;-303;15023;5043;928;2;479;505490;500;13:24:29.429825
6.05740779434564;55.9913389821304;258.326745600789;441.470813529828;436.263720443472;-421.869820026215;-201.135861054587;-38.6890104555059;3427;0;-303;15023;5043;928;2;479;505491;500;13:24:29.429872
39.1249275924347;12.2144379515667;69.4682215908542;-8.43951521138661;-199.18129182345;-412.355445605819;-13.8976305919932;65.9817253474612;3427;0;-303;15023;5043;928;2;479;505492;500;13:24:29.429929
12.1531942756556;-41.9474730630172;-14.6787287726765;-88.0262267743237;-52.5548119385494;-45.1950469716685;-20.7900851211743;37.174507552525;3427;0;-303;15023;5043;928;2;479;505493;500;13:24:29.429985
78.9299527283292;13.8807168140775;-23.24331990059;-217.296680228319;-45.8880489232251;232.91365613637;62.835259182204;103.131467384868;3427;0;-303;15023;5043;928;2;479;505494;500;13:24:29.430040
-25.060895656934;19.3238754789345;135.249328919104;225.466062498628;524.151401461801;455.865442240727;-79.1728194944444;-15.5823395005427;3427;0;-303;15023;5043;928;2;479;505495;500;13:24:29.430140
-89.9897827083187;51.5294523662888;385.169593454921;816.721489405027;1243.06990135706;472.297173716128;-390.328780098527;-164.612938745762;3427;0;-294;15104;5088;258;6;379;505496;500;13:24:29.430197
-0.073645391559694;96.2495316819986;374.57350015163;686.057805536868;1075.48394009995;405.030492062448;-318.966433697613;-72.2831585119711;3427;0;-294;15104;5088;258;6;379;505497;500;13:24:29.430251
99.6508468898246;84.7575867747655;234.908017486567;367.193372246169;671.449462784862;309.769292790326;-32.8397915264941;106.346131964703;3427;0;-294;15104;5088;258;6;379;505498;500;13:24:29.430314
102.726444838743;-71.6811307312455;-248.846268178429;-663.200864646758;-878.324036443373;-411.36835644464;221.890143710829;232.059498696355;3427;0;-294;15104;5088;258;6;379;505499;500;13:24:29.430378
-56.2210384405626;-231.132188108168;-545.687929367879;-1400.46524912442;-1964.50519007066;-755.798302695504;204.125109173357;117.694767701323;3427;0;-294;15104;5088;258;6;379;505500;500;13:24:29.430441
-108.838048345904;-194.802456334583;-321.059463874553;-800.822832741716;-1173.77095829998;-728.211293278495;-73.7876121387235;-44.9337278829189;3427;0;-294;15104;5088;258;6;379;505501;500;13:24:29.430568
-146.881268408644;-249.349672883051;-273.129122550483;-474.961231184978;-671.114186461025;-594.609364673845;-166.371344019659;-60.4426276176237;3427;0;-294;15104;5088;258;6;379;505502;500;13:24:29.507136
-159.599991989817;-195.881332711549;-122.436998536461;-122.344164081587;-166.758205242397;-543.145954640117;-286.611021507008;-114.511588552035;3427;0;-294;15104;5088;258;6;379;505503;500;13:24:29.507202
-110.541355653579;-46.6796219365206;194.321233240771;405.742359118565;820.229178411711;373.249107350712;-183.732502339408;-103.307345096371;3427;0;-294;15104;5088;258;6;379;505504;500;13:24:29.507263
-196.246765984804;-219.325586704654;-98.0752641664585;-17.8343996278418;461.25155008334;636.225648279418;-16.5442495276802;-59.4453381184721;3427;0;-294;15104;5088;258;6;379;505505;500;13:24:29.507315
-141.749723899178;-185.095240745926;-186.07976912125;-261.221561017272;-339.453403611435;202.258320798748;-14.4175551561057;5.7336780821206;3427;0;-342;15105;5132;-836;-119;427;505506;500;13:24:29.507370
-47.1840727908711;-170.166275054449;-341.546482250327;-743.039443823567;-1337.83894891426;-383.309545699973;22.4642668365268;89.9734507738613;3427;0;-342;15105;5132;-836;-119;427;505507;500;13:24:29.507429
211.164392514038;166.556730805896;49.5146063867724;-279.721084282384;-1020.90297189209;-439.833108430612;149.3155452059;243.713707939605;3427;0;-342;15105;5132;-836;-119;427;505508;500;13:24:29.507502
237.716718722862;286.406560523435;280.66583038785;198.691082433972;-87.7871056770673;-303.840527413297;41.0464933979674;152.056683859206;3427;0;-342;15105;5132;-836;-119;427;505509;500;13:24:29.507563
173.497226639651;173.205607163254;46.8274473404745;-330.575123058021;-622.158682629408;-484.551848356961;27.5400265202625;135.075515893754;3427;0;-342;15105;5132;-836;-119;427;505510;500;13:24:29.507626
-49.9202612608206;-87.6504495762056;-137.386564859771;-338.458402901102;-214.717463378387;-221.764119997155;-49.3986162926885;19.9202248608926;3427;0;-342;15105;5132;-836;-119;427;505511;500;13:24:29.507691
-226.820955883188;-263.758347893483;-167.251574006979;-133.56825558492;30.6322127675521;-210.685908504063;-114.443315718207;-127.585182043607;3427;0;-342;15105;5132;-836;-119;427;505512;500;13:24:29.507760
-309.085242981819;-396.913096402073;-383.561373108183;-501.641864903853;-635.367296146636;-595.248793430161;-126.99645196239;-164.925217362121;3427;0;-342;15105;5132;-836;-119;427;505513;500;13:24:29.507832
-315.779131120216;-354.4838611749;-318.905927209067;-249.970408044115;106.169768457534;35.6539946163539;-177.150203158963;-196.823755140416;3427;0;-342;15105;5132;-836;-119;427;505514;500;13:24:29.507905
-196.171261078911;-164.502372137853;-70.2085679769516;126.761296512937;904.029737089353;922.019544267445;-103.446154505189;-126.95410730131;3427;0;-342;15105;5132;-836;-119;427;505515;500;13:24:29.509120
-139.661606381444;-93.155199691304;-70.0694745028159;-4.05214907045593;451.69534645055;709.12796741887;-55.5021077317069;-61.9269838873297;3427;0;-393;15089;5051;-701;-115;709;505516;500;13:24:29.509216
-183.226783144142;-133.994926915155;-141.479101176141;4.89887260095566;632.045810122509;557.498153484426;-86.6605564629426;-75.2216881129425;3427;0;-393;15089;5051;-701;-115;709;505517;500;13:24:29.509314
-165.622214234492;-134.569546726882;-210.997680161265;-241.654870541126;-11.7088806825923;-89.1331452435115;-161.151340384036;-70.4599862849573;3427;0;-393;15089;5051;-701;-115;709;505518;500;13:24:29.509402
-196.924558142055;-75.5069346133387;2.58409790217411;224.414630453626;494.39045900933;-316.274968829588;-416.561143312894;-214.816925408668;3427;0;-393;15089;5051;-701;-115;709;505519;500;13:24:29.509490
-140.378605555132;84.1831967084436;333.741902510053;914.210523397021;1467.1735518644;-91.3945586817572;-443.184685404121;-220.225746098906;3427;0;-393;15089;5051;-701;-115;709;505520;500;13:24:29.509602
-161.051745152596;-14.5106971699279;53.5721963046817;264.730231505702;459.139760058315;-351.285775750643;-262.759144295822;-149.039919011644;3427;0;-393;15089;5051;-701;-115;709;505521;500;13:24:29.509706
-158.604239421635;-114.95278851816;-267.819483913598;-473.04323902732;-542.286372583592;-480.718211404514;-119.357537064352;-93.6433951744111;3427;0;-393;15089;5051;-701;-115;709;505522;500;13:24:29.509803
-210.837120758108;-223.079783305991;-476.868829529849;-843.836304527824;-926.987858008826;-382.935052556801;-65.1916940124356;-115.45344316226;3427;0;-393;15089;5051;-701;-115;709;505523;500;13:24:29.509914
-155.084857304319;-109.236081225798;-269.890442790464;-456.706186007505;-431.358418936143;17.7283920533955;0.225248404254671;-99.2242430191254;3427;0;-393;15089;5051;-701;-115;709;505524;500;13:24:29.510016
-15.5543003541534;140.327232707175;150.156764983898;223.73132053818;363.178717138595;329.913038638537;-62.3742571278708;-55.3689217190258;3427;0;-393;15089;5051;-701;-115;709;505525;500;13:24:29.510128
-53.6586578456627;224.787894772366;470.546709212125;901.625342788611;1270.01035662676;681.911071168375;-241.451644907764;-184.970938411541;3427;0;-485;15041;4952;528;-465;683;505526;500;13:24:29.510253
131.314096946415;447.309487156803;754.123592231772;1270.90719425329;1705.36328899907;743.287732738652;-243.383927814779;-72.4606514062034;3427;0;-485;15041;4952;528;-465;683;505527;500;13:24:29.510367
253.353269587504;508.035315338755;634.643626753939;829.599425905937;1006.31693213142;266.252035581623;-146.901650654501;102.247231458081;3427;0;-485;15041;4952;528;-465;683;505528;500;13:24:29.510568
145.296854597487;421.902175778407;597.124256625189;944.305523964693;1092.07650859212;35.6496308830101;-194.717928331229;21.3640802212758;3427;0;-485;15041;4952;528;-465;683;505529;500;13:24:29.510679
65.415278512548;257.328397466685;333.475843853434;568.618976026482;590.411985445651;-320.267719964264;-107.773697830387;-0.872570307808928;3427;0;-485;15041;4952;528;-465;683;505530;500;13:24:29.510790
-17.4463018956594;95.7934385451954;67.1442658248125;81.33331336212;81.0765503060538;-299.073017690447;-34.829685154371;-17.8627678037155;3427;0;-485;15041;4952;528;-465;683;505531;500;13:24:29.510920
-20.7664808486006;21.7341218309011;-163.070416997769;-453.532701103308;-587.857202440733;-234.406421685242;58.0734537473181;22.0034440349555;3427;0;-485;15041;4952;528;-465;683;505532;500;13:24:29.511057
152.842454467813;136.416839067708;-237.366894533858;-874.377011229255;-1173.88339380978;-113.894636708545;148.820409891661;159.751832026406;3427;0;-485;15041;4952;528;-465;683;505533;500;13:24:29.511197
209.002827055723;262.580768343294;36.0911932185991;-395.559936290141;-506.387504556333;438.390064319014;-97.4579470413737;124.849414814846;3427;0;-485;15041;4952;528;-465;683;505534;500;13:24:29.511330
183.960230538331;290.765493909013;167.008489140775;-8.16890676334151;-14.1566957080504;517.693726672558;-431.087910904025;43.6718796842033;3427;0;-485;15041;4952;528;-465;683;505535;500;13:24:29.511460
275.491459198267;419.948966808035;282.371912810719;73.279649126227;-39.8515576674836;48.4325487093301;-512.098079898511;79.7746767906938;3427;0;-440;14849;4851;1121;-483;163;505536;500;13:24:29.511586
195.938240065647;353.72221923864;264.115365092293;76.1960050011112;-154.661148390209;-251.002341703861;-288.983902301232;28.9675724616973;3427;0;-440;14849;4851;1121;-483;163;505537;500;13:24:29.511722
-89.3284455193789;41.8595452430891;63.2271248050965;-14.3391976437124;-442.930294577498;-340.982614443405;239.416748459626;-50.0248401882127;3427;0;-440;14849;4851;1121;-483;163;505538;500;13:24:29.512665
-204.079891151137;-56.4298194684088;9.93201802519616;155.624528988992;-46.8660076798405;-71.0834450185066;294.148680189159;-96.2289658949012;3427;0;-440;14849;4851;1121;-483;163;505539;500;13:24:29.512815
-78.8912273001624;-5.42135429487098;-80.4602970525157;-57.1451521474519;-286.774751174438;-362.043603286264;116.642706026614;6.21586831880268;3427;0;-440;14849;4851;1121;-483;163;505540;500;13:24:29.570315
-108.299729588703;-64.3617519686231;-270.089026333648;-505.754667884088;-724.413054003904;-598.675038106274;-164.982032578788;-63.543214574107;3427;0;-440;14849;4851;1121;-483;163;505541;500;13:24:29.570353
-66.7807490075647;10.59841421491;-165.177702958928;-434.975358281401;-544.410078053363;-420.917014147388;-263.215341569041;-82.7413513505599;3427;0;-440;14849;4851;1121;-483;163;505542;500;13:24:29.570381
-77.4524368005805;1.1473876797827;-142.063462266349;-358.10663950193;-579.295293418341;-288.093377997517;-55.1314959630836;-56.9779164837673;3427;0;-440;14849;4851;1121;-483;163;505543;500;13:24:29.570412
-187.362447773863;-144.328901392757;-239.475594584015;-214.609047671081;34.2004327029572;389.643335948582;475.311031266989;-17.6215276279254;3427;0;-440;14849;4851;1121;-483;163;505544;500;13:24:29.570443
