CH1,CH2,CH3,CH4,CH5,CH6,CH7,CH8,Vbat,Trigger,AccX,AccY,AccZ,GyX,GyY,GyZ,N,fs,Timestamp
454.90668871824204,657.890323368367,130.494589364971,-409.970259770082,-843.501403657487,-894.321276285336,-119.696248531574,169.095719004981,3426,0,-1300,14693,5202,1772,312,-185,680232,500,4.386381
171.359855762101,268.004588162177,95.74748581706079,-78.7385041144735,-209.254800868861,-531.979466270423,-113.182639675739,87.7630208422197,3426,0,-1300,14693,5202,1772,312,-185,680233,500,4.386396
31.465408725780396,202.96346553310298,265.14852897194197,361.647052213753,421.054635814187,-441.459396092047,-75.93979660666079,10.423786929342901,3426,0,-1300,14693,5202,1772,312,-185,680234,500,4.386410000000001
278.890261077817,519.331427493948,583.47315375472,711.056782628875,774.1711180074201,116.00209216051701,-171.327311567031,66.21819807321299,3426,0,-1300,14693,5202,1772,312,-185,680235,500,4.386426
158.509489205142,302.061500401469,241.927161131171,131.89120947849,300.02565178668,808.6032658295011,62.4193497870001,120.319514229777,3426,0,-1310,14980,5323,1686,-128,310,680236,500,4.386442000000001
175.76903303957099,367.72940256679396,480.01593972533,509.97442358898104,614.861528927519,1022.4816440074901,-27.7354733878747,97.222038740525,3426,0,-1310,14980,5323,1686,-128,310,680237,500,4.386459
25.856772021128602,-63.31656469381411,48.308921866584605,197.631260581722,459.67466349271103,789.444445684785,-9.43877259950386,100.246589558199,3426,0,-1310,14980,5323,1686,-128,310,680238,500,4.386476
-251.37144163815498,-552.576983158244,-395.89634252281405,-236.031200269441,282.557799928618,540.405224515067,-102.669770813722,-60.73869865434239,3426,0,-1310,14980,5323,1686,-128,310,680239,500,4.386494
-254.82882807243698,-559.701456616167,-309.840881957905,-65.03989368697509,239.80991070802003,394.82313475408597,6.99800602922915,-36.861932425876105,3426,0,-1310,14980,5323,1686,-128,310,680240,500,4.386512000000001
-284.070445145509,-534.915121862548,-382.853569762316,-119.77425789315001,-303.261683381512,-354.14792515459703,183.864489593252,38.392917614197394,3426,0,-1310,14980,5323,1686,-128,310,680241,500,4.386531000000001
-180.767498254398,-170.55610126058997,-117.06573283276501,102.441055725649,-220.435664752236,-567.066543455585,-17.1210115400609,-86.04276387346908,3426,0,-1310,14980,5323,1686,-128,310,680242,500,4.386550000000001
-370.90889483667,-652.443539897911,-148.74131396261498,355.664737923973,-614.639782749378,-648.117007916328,-84.42146030155709,-65.8216744732345,3426,0,-1310,14980,5323,1686,-128,310,680243,500,4.38657
-423.511793478916,-557.877291516401,-182.00299314560797,69.0892627729336,-366.90567008577597,-76.232342216128,2.15876621822827,-34.919311125064304,3426,0,-1310,14980,5323,1686,-128,310,680244,500,4.386591
374.211887766432,651.506988482317,111.106613679789,192.53200985709597,151.029403525783,227.158447011025,-65.3792177238502,87.0231765735662,3426,0,-1310,14980,5323,1686,-128,310,680245,500,4.386614000000001
602.479898825986,998.097552891239,371.732917975402,546.962301527616,515.416219992418,334.95860134327097,-141.014950704703,96.1398704326712,3426,0,-1157,15258,5225,1244,-424,371,680246,500,4.386637
432.362683280458,753.0167466105189,665.858595152968,1260.65620967915,627.789593323076,305.256184884347,-78.5636390405125,140.91381093556998,3426,0,-1157,15258,5225,1244,-424,371,680247,500,4.38666
234.54051102785198,367.867460140726,54.95728398824579,-326.190745188564,393.90507932720396,449.818310172472,105.34166613389999,199.035541911027,3426,0,-1157,15258,5225,1244,-424,371,680248,500,4.3866830000000006
216.066343773971,388.986915423535,247.673415365978,-209.802438278479,-84.5170029512956,39.0408440676401,-11.1776225714711,148.105305889389,3426,0,-1157,15258,5225,1244,-424,371,680249,500,4.386706
-30.7472422614228,102.75977362750601,178.60544577788102,-32.2533216593147,-305.54350946506,-210.590270636312,-27.860518587986,33.2117591461865,3426,0,-1157,15258,5225,1244,-424,371,680250,500,4.386733
-23.0596484151902,89.40819661680142,247.529964474379,273.260620608431,-721.553398216696,-649.882552021125,-210.289617173024,-107.07946957985399,3426,0,-1157,15258,5225,1244,-424,371,680251,500,4.386760000000001
54.0950883388577,145.782083685859,233.103113593534,-47.1365332719579,-179.337238365784,-220.09801528521302,-227.457933202677,-98.5401156911394,3426,0,-1157,15258,5225,1244,-424,371,680252,500,4.43348
241.58379128822702,216.352458411944,-6.733127792482259,-824.629047955474,-55.296103088388904,439.845950390853,47.7584754472482,134.483125308994,3426,0,-1157,15258,5225,1244,-424,371,680253,500,4.433519
395.915555673273,519.563450425048,582.229086271138,204.313252911117,158.622855260997,599.6269869388781,98.92448201659141,210.560463490547,3426,0,-1157,15258,5225,1244,-424,371,680254,500,4.4335580000000006
457.87360806408094,572.518535876297,600.3594608398851,418.445039135782,645.131927426992,967.069646376651,134.541461266752,277.72953027696303,3426,0,-1157,15258,5225,1244,-424,371,680255,500,4.433587
77.8166278376593,131.891711928067,358.872094339458,449.024545845401,1145.41517528688,1627.0159438338,75.30248705478151,105.54979859990999,3426,0,-892,15465,4891,-89,-193,67,680256,500,4.433618
-196.13519965866,-188.956993502565,185.973555094446,671.991343207454,1377.0570189617902,1711.22799100057,-4.068347327061931,-20.7590873072622,3426,0,-892,15465,4891,-89,-193,67,680257,500,4.433652
-159.5906695429,-62.5807426342508,233.851027984871,531.417507317819,570.268512163166,523.3197868473941,84.50152195373079,43.3219575838884,3426,0,-892,15465,4891,-89,-193,67,680258,500,4.433686000000001
-131.446210337104,280.843980354839,465.958248956944,370.715866300219,-424.22284311935096,-641.824587919633,179.912001285411,27.101367635419603,3426,0,-892,15465,4891,-89,-193,67,680259,500,4.43372
156.713467879832,663.693893744261,843.21687081072,512.117871832481,-317.13259892509103,-712.191457754641,143.943190353224,94.5569618197624,3426,0,-892,15465,4891,-89,-193,67,680260,500,4.433754
-42.6859278344782,4.26569068012759,136.522812535986,-252.575131788035,-245.154610796744,-500.42146078439004,172.01766638050302,150.23526362679,3426,0,-892,15465,4891,-89,-193,67,680261,500,4.433792
267.21701842011004,71.55070441996209,240.601717593265,42.6809434911411,33.627119069860804,-136.251958474226,187.80984934593997,294.649535693345,3426,0,-892,15465,4891,-89,-193,67,680262,500,4.433832000000001
493.73976511452906,312.892012802418,402.00249473867007,181.21131104324,134.02680700295602,100.15066552558001,175.572558350163,329.924229771132,3426,0,-892,15465,4891,-89,-193,67,680263,500,4.433871
349.72824165571404,551.207217816263,458.022342859767,195.773833969404,169.567701191554,110.998039201775,49.200374337611706,188.85238465061403,3426,0,-892,15465,4891,-89,-193,67,680264,500,4.433914000000001
-497.064723703777,161.458349580993,422.89374444447503,320.452659121423,352.726310108264,267.786301205691,-147.145358281792,-198.901758826571,3426,0,-892,15465,4891,-89,-193,67,680265,500,4.433963
-935.765074058465,-488.75999386736703,-159.366965053254,-85.1110757112911,148.010271820327,341.118918157881,-168.121534320933,-367.15669672587006,3426,0,-800,15494,4640,-1296,426,41,680266,500,4.434008
-616.684365843568,-236.46769787895,-186.79605238232799,-173.570530725905,-43.2239060138527,108.442279705021,-197.77288434875703,-431.933971662074,3426,0,-800,15494,4640,-1296,426,41,680267,500,4.434054000000001
-546.025672838063,-518.970966439578,-380.82465667638496,-233.093614227313,-180.39348259218997,-291.263601752697,-265.802299418661,-421.354402812547,3426,0,-800,15494,4640,-1296,426,41,680268,500,4.434102
-373.87206488338404,-660.7890368558,-735.3897150938859,-760.912483110151,-567.260841036943,-645.2230018089759,-385.640299962892,-292.63461202266603,3426,0,-800,15494,4640,-1296,426,41,680269,500,4.434152
0.8581201645429251,-233.381058484432,-436.581855905126,-376.80732968699897,-519.976420165098,-831.7625156862201,-383.723355335707,-130.729651109315,3426,0,-800,15494,4640,-1296,426,41,680270,500,4.434878
167.190719230624,-81.6003082698444,-384.95616759650903,-401.938767176995,-633.255230264971,-887.7466551493269,-352.996652919042,-98.0409260516753,3426,0,-800,15494,4640,-1296,426,41,680271,500,4.4349620000000005
-96.8650197641691,-301.385384165565,-542.6467880291169,-569.84006314,-653.669932945224,-673.691604838183,-357.42093128094,-251.58712001959802,3426,0,-800,15494,4640,-1296,426,41,680272,500,4.4350190000000005
-10.802025136770698,-83.15312816377259,-201.473766820855,-152.29321517533398,-134.199825985241,-169.128053986991,-372.70714684016997,-264.08150662702997,3426,0,-800,15494,4640,-1296,426,41,680273,500,4.435084000000001
-204.062304610386,-251.228920049034,-229.25823503592997,-92.7345737140568,389.719703093404,637.20257731271,-318.225609280402,-384.727849593852,3426,0,-800,15494,4640,-1296,426,41,680274,500,4.479263
-589.675448560301,-792.83204832382,-470.34219155018206,-288.315099558182,490.701636204874,1093.57766651135,-129.26244906405898,-373.671725952649,3426,0,-800,15494,4640,-1296,426,41,680275,500,4.4792890000000005
-1073.79960204571,-1307.76570163469,-404.310719885281,-194.249264107755,234.642105434614,890.3256684916561,52.377312051598,-322.989158260287,3426,0,-986,15312,4579,-1308,613,233,680276,500,4.4793080000000005
-1346.1304908288,-1491.26261414995,-309.275587474112,15.9115753647638,-63.9413329790113,78.4229549259762,100.57222384592801,-289.820520919282,3426,0,-986,15312,4579,-1308,613,233,680277,500,4.479328000000001
-1181.73437013166,-1303.72967471986,-563.226301564137,58.4854563905101,-149.11314012261602,-223.48955762171002,137.230131307035,-303.76079267950297,3426,0,-986,15312,4579,-1308,613,233,680278,500,4.479348
-998.476166019071,-610.683117377223,-664.921685246867,-130.023749095446,-278.927815514064,-402.37351807492104,-9.42443797917804,-752.775934100733,3426,0,-986,15312,4579,-1308,613,233,680279,500,4.479369
-102.96371135424101,671.968014195212,422.20577529433604,196.599296692177,-286.86714528492297,-541.245462458348,-118.47237485076799,-624.750209503574,3426,0,-986,15312,4579,-1308,613,233,680280,500,4.479392000000001
393.80873082671303,910.047860958031,906.4492705918381,405.848742197413,-433.820554911101,-785.6865624421629,-123.79802548559401,-74.96282263658941,3426,0,-986,15312,4579,-1308,613,233,680281,500,4.479415
412.332633043145,-165.632437223219,-521.395307885134,-887.093940701656,-846.2395656820739,-824.320059810416,-25.702700441761397,464.980617572786,3426,0,-986,15312,4579,-1308,613,233,680282,500,4.479438
401.790393356117,-540.200904484023,-798.5179990683681,-878.9418398150299,-761.570752128231,-563.321139142965,-65.968350869487,508.246180712362,3426,0,-986,15312,4579,-1308,613,233,680283,500,4.479463
98.2088879097428,-720.265093797119,-573.288070952287,-318.334127082344,-303.287042761716,-19.360498766589398,-68.9599704985158,234.940194781288,3426,0,-986,15312,4579,-1308,613,233,680284,500,4.479488
244.606681795616,-72.24925745895601,176.83099073288003,693.4023382298179,207.916628766252,224.652863354015,-158.367452197359,107.14370705163999,3426,0,-986,15312,4579,-1308,613,233,680285,500,4.479514
318.610703430924,321.22802758927,108.66628785058901,451.28810899198305,833.9653673957511,745.846666561789,-157.215050707164,104.16345473006399,3426,0,-1253,15097,4533,-806,533,160,680286,500,4.47954
551.671227115206,1087.4026209655,573.00281021127,338.385432565177,635.303959162702,696.054745048808,-344.882665480429,34.6353320339695,3426,0,-1253,15097,4533,-806,533,160,680287,500,4.479568
601.931612098968,1249.7064241179,1167.6615396449301,1207.70696740775,964.790257594199,339.789708509692,-490.44333835487504,12.6801807055017,3426,0,-1253,15097,4533,-806,533,160,680288,500,4.479596
-128.550090068369,-4.16657817212399,-246.556541486643,-523.577617909294,458.358502369083,469.927262440149,-183.006223143602,-189.863118865644,3426,0,-1253,15097,4533,-806,533,160,680289,500,4.4796260000000006
27.5733435587317,-35.973286915104794,-369.12171136925497,-630.308934376109,-672.795891356829,-530.474528231891,-1.6319415805628503,14.5850912906462,3426,0,-1253,15097,4533,-806,533,160,680290,500,4.479658000000001
31.690365093963898,-184.643448724644,-724.6659494980701,-1082.50013222184,-1445.9620191316599,-1260.982378432,-7.35937428940088,87.29259941808408,3426,0,-1253,15097,4533,-806,533,160,680291,500,4.479690000000001
34.760984434979,-222.13770891516498,-716.999376518885,-874.1231788647999,-1097.41416908349,-851.4350376916701,-30.9024281295133,63.6890814227518,3426,0,-1253,15097,4533,-806,533,160,680292,500,4.479723
58.66056655230929,-159.780404532561,-640.831919909571,-685.207793797425,-851.556751784025,-319.76912543003,-63.093984588224004,9.57168673188426,3426,0,-1253,15097,4533,-806,533,160,680293,500,4.479758
85.24063234706409,53.847641970263794,-208.835573859746,-209.444501764083,-937.6661693343781,-157.447411006026,-114.755988819117,-23.9953493223293,3426,0,-1253,15097,4533,-806,533,160,680294,500,4.479795
301.290966168133,504.298679603497,762.3472315175459,1026.5641398443,-1.09230590096558,295.014841347118,-38.568821118155,101.857139998348,3426,0,-1253,15097,4533,-806,533,160,680295,500,4.479833
88.3143271173758,171.995188350556,239.696464890847,-262.111907977116,-161.385107442184,185.317333742161,67.4745823435951,127.753127733245,3426,0,-1376,14962,4494,-635,376,130,680296,500,4.479871
-3.7503543783968802,-43.8719731110614,201.555026353686,98.04022565242491,-7.63353732260293,266.787978480919,60.8915038756095,104.627151223016,3426,0,-1376,14962,4494,-635,376,130,680297,500,4.479909
-52.927857359551105,-160.64831292303302,-126.291929543833,-748.742002057115,-538.505384455289,-23.4365967637277,169.662813278381,201.03541669167998,3426,0,-1376,14962,4494,-635,376,130,680298,500,4.541478000000001
297.003094246291,503.137015415588,263.46999334392603,-359.63122428776103,-610.572113098722,-312.023471364344,116.082252137596,281.325671428931,3426,0,-1376,14962,4494,-635,376,130,680299,500,4.54154
245.054005563434,506.715810341528,305.511834674282,319.77716011781,1436.95213666893,1052.62454164977,115.834794373135,150.92177362425699,3426,0,-1376,14962,4494,-635,376,130,680300,500,4.541589
-67.6112373969809,-144.648763648467,-122.031564852339,408.353346218006,1662.15761414173,918.5140698545731,-94.0945825603558,-89.1591673425864,3426,0,-1376,14962,4494,-635,376,130,680301,500,4.5416430000000005
-87.18915163865309,-350.62517293903505,-97.0452638845891,611.081956384121,982.163933801727,164.950886548555,-80.7870326002012,-44.0145782536129,3426,0,-1376,14962,4494,-635,376,130,680302,500,4.541697
-154.218981140002,-332.410208871122,200.913046644884,799.329997925961,586.88482927985,14.058126035029998,84.4006851847516,28.3928756976966,3426,0,-1376,14962,4494,-635,376,130,680303,500,4.541753
80.6994191194244,19.489080866100302,414.649175080121,554.903732680046,99.1317411604978,-26.6325191332726,331.990690203384,259.888155120658,3426,0,-1376,14962,4494,-635,376,130,680304,500,4.541812
188.462748558406,122.531564464676,-229.91560994868598,-713.0318566867211,-1245.1060314005902,-661.074256933236,64.6964760106057,152.59612363169398,3426,0,-1376,14962,4494,-635,376,130,680305,500,4.541874
223.32322253022002,501.5376763922401,156.142758936272,-619.573252196889,-1368.0878592502302,-769.8254505184599,-204.23108433349998,-6.0306031622458205,3426,0,-1293,14882,4572,-351,250,202,680306,500,4.541937
425.68272486332,648.2232520486,509.54907683597395,-81.0653559592029,-312.88464409110003,1.28333448193735,-67.3250687882537,151.34763377835,3426,0,-1293,14882,4572,-351,250,202,680307,500,4.542004
363.14947903848997,549.583774455008,576.298184541985,247.996687163395,234.268005681428,377.189041031408,33.0928098766599,116.949081796454,3426,0,-1293,14882,4572,-351,250,202,680308,500,4.542073
146.358470848325,222.599137691781,281.461232400383,104.885234042333,-364.254518201837,-170.829603475053,-42.6439558470738,17.388250348390997,3426,0,-1293,14882,4572,-351,250,202,680309,500,4.542142
-283.373973695911,-107.26712902670299,36.0074391873786,-159.667721770296,-383.884396409296,-211.149860168691,-71.7209322294802,-83.9112038575113,3426,0,-1293,14882,4572,-351,250,202,680310,500,4.542215000000001
-292.342932526692,-396.241262868396,-389.23189804109296,-149.617988182872,805.141396199499,849.118810633139,-77.57582224690121,-84.5677282582037,3426,0,-1293,14882,4572,-351,250,202,680311,500,4.542289
-462.17531670903605,-966.7963752199429,-688.90235070698,124.648626214243,1179.32150051181,846.7176480953349,88.56355236825769,-20.619228187017104,3426,0,-1293,14882,4572,-351,250,202,680312,500,4.542372
-169.764204408944,-400.299046172528,-241.481327234767,-60.6441853816214,143.625403025973,57.2661992524518,303.305793273728,170.72477318136998,3426,0,-1293,14882,4572,-351,250,202,680313,500,4.542454
228.314079952426,289.320430354797,302.71772126935,391.38315902440803,327.265245909221,-136.01865970727502,145.680855428509,229.491843670025,3426,0,-1293,14882,4572,-351,250,202,680314,500,4.542535
203.045091476903,222.02576044132005,60.0182016644394,380.627021774126,857.4039314475959,418.425234723487,-61.6562116109999,105.66046873724599,3426,0,-1293,14882,4572,-351,250,202,680315,500,4.543703000000001
122.433900237113,95.93796736071822,482.18213873717497,603.520648285834,943.640337322402,729.417300668603,-74.6086387899122,122.495812239242,3426,0,-1124,14791,4696,-218,420,108,680316,500,4.543807
-77.4187356621842,175.138960067998,901.04274207959,629.826616472594,441.45876616472395,496.892905970104,0.0532813021563925,23.841544765047697,3426,0,-1124,14791,4696,-218,420,108,680317,500,4.543936
-123.72317503517799,337.812467370182,478.896716885851,0.900572920945706,-630.841810670361,-43.78984422684879,52.9141624328331,-2.03194869193248,3426,0,-1124,14791,4696,-218,420,108,680318,500,4.544035
94.89199155886308,662.4094194885109,-160.595577147207,-998.788919996703,-1660.90829425945,-753.612016305211,-168.167376652826,-68.3258562294068,3426,0,-1124,14791,4696,-218,420,108,680319,500,4.5441460000000005
-216.905867009016,-410.305409718072,-905.3827786515469,-587.7542658277671,-229.455494667462,-58.3269649974536,-125.126219126745,-69.1957083301386,3426,0,-1124,14791,4696,-218,420,108,680320,500,4.544246
-1080.30570907288,-1426.87717669201,-1248.30390764191,-59.5986895133683,989.356303853885,398.72238588467,-68.7051952109905,-254.888791183359,3426,0,-1124,14791,4696,-218,420,108,680321,500,4.544364
-1201.48392086435,-1220.31522584846,-598.1161762542321,539.47592028699,1729.8232133120498,1391.64026412705,102.288516673027,-269.31610403431097,3426,0,-1124,14791,4696,-218,420,108,680322,500,4.544504
-646.348020201403,-125.888242954039,776.3665975943441,1241.3540635393902,1608.34112963153,1376.3703889548801,151.893322484975,-204.052983013564,3426,0,-1124,14791,4696,-218,420,108,680323,500,4.544630000000001
495.147326655628,1276.85046053806,1770.9372206577102,1368.97694170821,974.546168373083,555.308971175808,-28.6826774522197,69.0898676206125,3426,0,-1124,14791,4696,-218,420,108,680324,500,4.544748
812.4652359379401,1188.29618279112,1551.57909076591,973.23558354628,787.8635501024839,-88.5715860087075,-317.308387630386,151.994747038232,3426,0,-1124,14791,4696,-218,420,108,680325,500,4.544872000000001
629.909266729723,876.214477229747,897.651032642578,461.160946390562,362.994682790653,-212.628666633333,-212.768800277205,212.98968992417198,3426,0,-1096,14769,4868,-436,368,18,680326,500,4.544992000000001
35.216113526927096,-355.19467567314905,-867.104413404828,-650.722314900864,-306.013053486269,-245.691037172277,-111.513830268115,22.7905202320544,3426,0,-1096,14769,4868,-436,368,18,680327,500,4.5451310000000005
-597.764326021454,-1491.7125691320998,-1821.74708435638,-1131.5786038996,-238.23830983851798,130.098829159164,-137.724717225938,-211.740444738418,3426,0,-1096,14769,4868,-436,368,18,680328,500,4.604152
-732.8998493795219,-1208.82206413301,-1236.0150963228698,-817.351103882742,-25.2198757375882,-37.419690137729,-306.702348270395,-420.478156646481,3426,0,-1096,14769,4868,-436,368,18,680329,500,4.604217
-265.102571890544,-189.075843819766,-272.969325682614,-471.240689729049,-307.758743796381,-565.562191431934,-340.395782274543,-315.550106920302,3426,0,-1096,14769,4868,-436,368,18,680330,500,4.604268
80.5950207496644,341.938913927763,138.456577096367,-623.325855193048,-965.374574438203,-804.8632101361289,-252.41805813385898,-151.301477686153,3426,0,-1096,14769,4868,-436,368,18,680331,500,4.604318
84.09870539276741,-11.168927423656001,-396.338493426912,-1242.5355974366,-1702.19001280921,-1095.80034871411,-153.60412626166402,-4.99796125548892,3426,0,-1096,14769,4868,-436,368,18,680332,500,4.604371
-225.474740746897,-583.459694508929,-885.6834826620759,-1220.94762977303,-1308.79164561181,-122.991042582784,-229.923738236772,-118.895294141956,3426,0,-1096,14769,4868,-436,368,18,680333,500,4.604431
-168.456050036068,-423.14612037816596,-569.910861588083,-436.384206267598,-215.688510034728,902.268324376026,-65.78841056744571,-138.947228585137,3426,0,-1096,14769,4868,-436,368,18,680334,500,4.604487000000001
47.8503610660264,45.230925853014895,-259.052941443166,-919.683943296579,-1713.0114961300599,-261.61531803139997,168.843283232418,32.05597883265,3426,0,-1096,14769,4868,-436,368,18,680335,500,4.604547
649.014747277542,1058.29262578359,464.31289357144897,-672.471199131571,-1519.09398173008,-126.04038202704399,58.689593302435206,228.747366312076,3426,0,-1181,14795,5035,-679,-139,354,680336,500,4.60461
578.823921052914,980.4471564035629,1095.1525592324301,1379.30526015299,2197.27957478177,1425.92240350484,-32.2033860774827,172.54946954106003,3426,0,-1181,14795,5035,-679,-139,354,680337,500,4.604677000000001
323.656363029557,247.662798473844,782.956195672043,1625.60579463522,2993.24326471973,1288.9548581381698,141.382717635424,223.377444758429,3426,0,-1181,14795,5035,-679,-139,354,680338,500,4.6047460000000004
-105.224242517899,-523.680214207619,-297.51309022947703,217.160479180398,1381.23989659559,956.8854081828031,-87.6841888903291,-86.1742275621509,3426,0,-1181,14795,5035,-679,-139,354,680339,500,4.6048160000000005
257.308373148378,238.042761134799,143.035113322781,475.913886884693,1320.67577281877,653.768900109862,-181.718852765218,-28.1457536687376,3426,0,-1181,14795,5035,-679,-139,354,680340,500,4.60489
357.923363851703,547.0332936699269,286.908556535025,13.9325425383577,-178.128461943998,-426.67256621841796,-85.7603059431422,36.1153989550658,3426,0,-1181,14795,5035,-679,-139,354,680341,500,4.604976000000001
383.73062548990094,515.263756627101,292.830837122048,-287.255786565656,-1427.6597663823002,-1720.1790810496302,46.765650477434995,250.62208715279098,3426,0,-1181,14795,5035,-679,-139,354,680342,500,4.605306000000001
218.40127045704898,282.140242552268,80.0434915396618,-466.415851667727,-1497.85423947108,-987.116303613526,-106.57662470452499,110.65403804799999,3426,0,-1181,14795,5035,-679,-139,354,680343,500,4.605393
-46.234169281960895,-200.494689702173,-381.507551841554,-475.377177645103,-691.622900524235,240.66020408913,-162.600164346746,-80.2390085048974,3426,0,-1181,14795,5035,-679,-139,354,680344,500,4.605478000000001
-304.581835239194,-565.795112253749,-650.455558737856,-279.496212679049,441.447484799311,965.165588708129,-194.067802019883,-219.057754180045,3426,0,-1181,14795,5035,-679,-139,354,680345,500,4.605565
-184.055257784756,-158.345655810204,432.49422984593497,1575.4933694922101,2107.9051665171,1486.8050871068801,-94.95410109648951,-179.24752385821202,3427,0,-1272,14772,5116,-547,-471,687,680346,500,4.6056550000000005
562.027328021592,787.60107013653,1850.70830742572,2386.678927689,1149.8544669714802,87.91677835118031,287.137046415068,447.376646647928,3427,0,-1272,14772,5116,-547,-471,687,680347,500,4.605751000000001
1008.5970020172,1279.4869854178999,1192.09707791242,349.501534585084,547.558838881174,248.78831880301001,285.82810910831904,575.247430638177,3427,0,-1272,14772,5116,-547,-471,687,680348,500,4.606095000000001
715.171922409674,1009.9329464317999,896.43112393748,453.43617398233596,726.891443278902,282.42913196317403,-35.4619979616255,256.300485442276,3427,0,-1272,14772,5116,-547,-471,687,680349,500,4.606196000000001
52.7281716024154,11.3144216877408,66.805488892016,-6.40528752477258,449.814006495231,-496.25194601091795,-98.33945157233391,13.8699171993649,3427,0,-1272,14772,5116,-547,-471,687,680350,500,4.607412
-117.490727997094,-26.8000228023157,30.609521037084104,-191.198836241587,-197.46958380684399,-834.897382982541,-53.1032463204465,-70.50934504321779,3427,0,-1272,14772,5116,-547,-471,687,680351,500,4.607529
87.0755004348175,113.443134666537,-208.853626062395,-1021.5997885916099,-1714.14022752858,-1176.23734439537,-20.3548149077687,34.9796654961538,3427,0,-1272,14772,5116,-547,-471,687,680352,500,4.607639000000001
-50.7775021338311,-301.58616814285097,-882.566568530165,-2149.6521065169395,-3758.3641584062702,-1675.24920972268,-16.833183729148,35.8003623373806,3427,0,-1272,14772,5116,-547,-471,687,680353,500,4.607749
-166.038356551522,-293.05364216607995,-708.116070752614,-1636.77051014028,-3114.66644821348,-1068.88039400114,-111.735751338361,-48.8527740885038,3427,0,-1272,14772,5116,-547,-471,687,680354,500,4.607859
-152.653815818863,139.713489478687,251.230753730284,289.833957373834,725.946822826663,1023.5587861480301,-323.70461594488,-250.7026676276,3427,0,-1272,14772,5116,-547,-471,687,680355,500,4.607979
-195.080221659387,88.0851129387738,877.607518325211,2158.58058099955,4942.900368103,3520.1199347010706,-175.26509031048,-251.27280358225102,3427,0,-1483,14651,5203,-172,-1126,631,680356,500,4.608105
-452.612103266001,-658.5243888421679,62.1518880046206,1065.3981901550999,2682.42971921482,2196.2117999171,168.089387787506,-54.0704522789456,3427,0,-1483,14651,5203,-172,-1126,631,680357,500,4.608228
-104.69996961759199,-603.76874188357,-197.55620589526401,240.224519912968,547.469331370783,-50.3399970284081,463.42468446120597,418.92035008384806,3427,0,-1483,14651,5203,-172,-1126,631,680358,500,4.608352
-83.1021888413816,-495.01714156928904,-454.013360050856,-123.493139384664,-75.2008348600066,-496.985656735953,346.623983746744,351.35259265999804,3427,0,-1483,14651,5203,-172,-1126,631,680359,500,4.608473
229.396802763047,298.080741033074,112.59057022188802,155.32120013152598,-386.00589315564105,-1183.4895169484698,63.325149845099105,215.052585820318,3427,0,-1483,14651,5203,-172,-1126,631,680360,500,4.667153
250.791687188466,205.772389497724,-156.66996452643102,-80.13792625308271,-39.0294766290754,-968.989847613091,-73.3389178723446,129.13980042818,3427,0,-1483,14651,5203,-172,-1126,631,680361,500,4.66722
252.034631442308,292.489279723726,150.829728904995,67.9512887557794,805.457361422363,804.0446076433869,-9.54421549616382,81.06342483195479,3427,0,-1483,14651,5203,-172,-1126,631,680362,500,4.667271
395.357884223136,516.242522560293,297.471590458648,-162.44131423259398,-429.61295791142,372.63934481109,-52.876647675992004,142.896329087671,3427,0,-1483,14651,5203,-172,-1126,631,680363,500,4.667322
-112.040489816776,-156.196584349498,-119.19610416504999,8.54181625429192,-37.386615260911604,390.81136308377603,-179.14056505193,-111.066101828823,3427,0,-1483,14651,5203,-172,-1126,631,680364,500,4.667377
-6.9129356544290195,-47.0976559693227,322.972204875434,855.124366808421,1318.84576265738,1044.73873901402,227.833566823567,113.157984598656,3427,0,-1483,14651,5203,-172,-1126,631,680365,500,4.667436
411.919645800197,611.1761506336039,1286.2916507472999,1360.18388338655,96.21209860677479,-194.677694932441,412.086103382171,420.039740491193,3427,0,-1492,14629,5133,71,-1625,329,680366,500,4.667493
312.732678658911,286.340471341158,504.437356885988,-13.3350479613,219.46896361126,388.02186047384697,314.778855073499,383.211504185572,3427,0,-1492,14629,5133,71,-1625,329,680367,500,4.667552000000001
370.790237835638,185.16797732526902,452.792985371547,762.8783238563631,1171.94989793233,960.448304099904,185.880786104768,369.68430281022995,3427,0,-1492,14629,5133,71,-1625,329,680368,500,4.6676150000000005
9.74105393694481,-357.95919740072,-334.590217242367,319.979327605601,1295.63099747719,1337.8706594709101,159.947201752802,156.568521206384,3427,0,-1492,14629,5133,71,-1625,329,680369,500,4.667681
276.27912418989604,25.9192032397259,65.46175165346361,592.133466763014,590.919854623033,787.337049764406,381.774020045006,283.981684778119,3427,0,-1492,14629,5133,71,-1625,329,680370,500,4.6677480000000005
950.888834415673,1011.1880111739699,1057.75688731088,925.459270334482,117.585005049215,-560.293221244181,480.57242632581597,648.2917010120581,3427,0,-1492,14629,5133,71,-1625,329,680371,500,4.66782
548.759581030172,966.517093619797,1012.0727567117401,425.801855044003,2.93639445232111,-1524.3801626545,52.426419820578296,255.760910254903,3427,0,-1492,14629,5133,71,-1625,329,680372,500,4.667892
-475.423383737565,-706.3840516043131,-642.949556649779,-1179.6347175367698,-1996.4110580140302,-2352.1496658356,-221.313089084986,-181.56537256226898,3427,0,-1492,14629,5133,71,-1625,329,680373,500,4.66797
-1290.0361156936901,-2261.97319805017,-1755.5622199862303,-1732.4742153761301,-2294.2627128493,-1356.89663538837,-144.808052822831,-346.105528919026,3427,0,-1492,14629,5133,71,-1625,329,680374,500,4.668056
-1525.0088777346,-2528.03993282269,-1755.1285119870402,-662.510531731386,292.565623963194,577.990018488956,-181.54604657815102,-517.521074753022,3427,0,-1492,14629,5133,71,-1625,329,680375,500,4.668141
-1074.28381817834,-1692.59525437537,-1499.23856939794,-226.973800668638,1007.65425966284,1076.57800745429,-70.7436909514945,-388.65182610240305,3427,0,-1143,14817,4885,499,-1303,345,680376,500,4.6682250000000005
-366.79617048578797,-296.112948731054,-834.080611865036,-417.958496232575,-313.46894870739203,217.40254061669103,-44.796927841205594,-200.75810353807202,3427,0,-1143,14817,4885,499,-1303,345,680377,500,4.668318
426.276781803434,488.68167199241,-365.014354937361,-987.1466361009219,-1487.9011409182901,-445.221668062906,-74.8222175590345,134.852799378452,3427,0,-1143,14817,4885,499,-1303,345,680378,500,4.668415
14.9462262045417,323.57276247837603,339.688950682059,-291.105336652574,34.5123520753405,-260.831814767851,-400.606012587668,-213.45509365852902,3427,0,-1143,14817,4885,499,-1303,345,680379,500,4.668521
-12.630959228204999,506.336715077166,209.775559793576,-10.1868869614264,620.685041646473,-36.0032667994965,-249.282531027333,-205.61882147239498,3427,0,-1143,14817,4885,499,-1303,345,680380,500,4.6686250000000005
131.06109001542802,668.911045870278,161.969723380287,-133.25584872948798,741.3963237466229,725.623303813045,-366.16297374584195,-298.240714717191,3427,0,-1143,14817,4885,499,-1303,345,680381,500,4.668732
-356.08779860159797,-112.64253868197599,-113.807120752055,361.339974324073,2051.0791409885896,1896.07753116358,-254.001570703462,-396.650485395803,3427,0,-1143,14817,4885,499,-1303,345,680382,500,4.668837
-744.7208831325121,-961.944009373896,-912.8211751526691,8.04209648974938,1043.80376371549,1202.4791181607302,96.2619986443315,-363.63500814617106,3427,0,-1143,14817,4885,499,-1303,345,680383,500,4.668985
317.42926772372397,21.9288635477424,-451.688650562661,-681.699148598564,-1831.10184587198,-1689.61542130285,380.53549193072797,323.86124183191004,3427,0,-1143,14817,4885,499,-1303,345,680384,500,4.670209000000001
960.854537886975,1114.75148987328,356.482981471578,-921.576933264616,-2974.70314673867,-2801.50298276573,174.30842150689602,511.84879114083,3427,0,-1143,14817,4885,499,-1303,345,680385,500,4.67033
726.679135198472,1250.81818541558,928.9679165825951,-326.657375059935,-1675.1907445479,-1011.56889063149,34.2496021313127,271.151550163515,3427,0,-858,14996,4764,268,-681,785,680386,500,4.670446
477.51213203495695,852.488626217237,869.200905064004,400.963972497673,-336.19091360660997,-432.468047042203,-92.1365755195729,82.1430241748458,3427,0,-858,14996,4764,268,-681,785,680387,500,4.670562
-515.859252996073,-641.970985429594,-208.443783248775,-24.318786317948298,199.05385761521802,-267.024175334955,-49.9914750485914,-198.914315562812,3427,0,-858,14996,4764,268,-681,785,680388,500,4.670675
-1228.49385634041,-1903.09366474557,-1387.8974239418699,-823.9008131067089,-1258.89203620367,-541.877971184673,-188.238790554693,-418.81677241600096,3427,0,-858,14996,4764,268,-681,785,680389,500,4.6707980000000004
-1162.02764076277,-1520.636597006,-1151.3855500457598,-8.565234892390441,1608.3144072364098,1693.9436810963098,-312.827357462083,-619.06300816033,3427,0,-858,14996,4764,268,-681,785,680390,500,4.670927000000001
-366.936086094473,79.4119948176667,194.220062591136,942.669614314858,4108.73506988407,3079.95015398826,-466.65394602029096,-592.197657816694,3427,0,-858,14996,4764,268,-681,785,680391,500,4.671061
257.254002560192,482.880749240983,172.513174220338,19.708098692382897,-305.910754495126,-75.00547576643291,-225.01774069399102,-159.20233598572702,3427,0,-858,14996,4764,268,-681,785,680392,500,4.730718
456.26578462109296,371.500270760967,-59.603621576563505,-730.741510829888,-1688.1513990427802,-354.407747070014,113.978156032506,181.936135461787,3427,0,-858,14996,4764,268,-681,785,680393,500,4.730783000000001
735.255383423937,897.4937364716319,506.177578529343,-757.28739361203,-2506.5041812186,-630.306987619435,135.70618167566099,325.026867153123,3427,0,-858,14996,4764,268,-681,785,680394,500,4.7308330000000005
180.954020147328,401.27477984176903,126.77705585851801,259.961527150183,1498.17404924921,1166.2436352663199,-230.40350146271498,-112.04237923817699,3427,0,-858,14996,4764,268,-681,785,680395,500,4.730886
-90.17095808847809,335.566437381902,669.337262845598,1844.8448497439701,4426.243875521211,2575.60860974353,-383.245513066242,-398.562228883267,3427,0,-900,15047,4983,-619,-1035,1140,680396,500,4.73094
133.997770906746,548.914442597306,957.652989955735,1662.85809065215,3094.1531405479805,2379.26608052198,-171.44643293618,-219.396412478876,3427,0,-900,15047,4983,-619,-1035,1140,680397,500,4.730996
712.116777379357,989.132050898741,996.875379210454,687.087943615654,-356.984822056023,-307.033569351654,371.613213377306,385.845266314689,3427,0,-900,15047,4983,-619,-1035,1140,680398,500,4.731053
870.583691193111,1029.29622031259,521.802030427149,-612.410154615791,-2256.5047198731895,-1970.0038391092103,527.271821698349,632.721218803665,3427,0,-900,15047,4983,-619,-1035,1140,680399,500,4.731112
523.208179642301,522.357991751633,480.945489779115,187.235879912041,-1323.8882328274199,-979.6960458046519,447.435531042342,401.47868318879,3427,0,-900,15047,4983,-619,-1035,1140,680400,500,4.731174
343.124496176897,39.6172591320937,37.11930064170161,-161.944507296284,-1978.9477581491199,-1773.5662241460502,339.760026221571,326.145040235133,3427,0,-900,15047,4983,-619,-1035,1140,680401,500,4.731240000000001
252.725877466291,138.282449931605,68.8760692829965,-495.82682844394003,-592.544489175692,-1195.02696117142,-29.9269391825073,133.483548128512,3427,0,-900,15047,4983,-619,-1035,1140,680402,500,4.731309
-32.3217910495878,-49.495080198976204,-108.453155873227,-296.847212690307,547.013474236213,-104.929954404128,-176.371962835721,-147.208169187536,3427,0,-900,15047,4983,-619,-1035,1140,680403,500,4.731377
47.915079647704296,-126.607391125406,-514.112806705758,-516.7204648409099,-563.609752089076,-580.673460401595,-16.8949257314671,-47.759042256861,3427,0,-900,15047,4983,-619,-1035,1140,680404,500,4.731461
54.6046081379754,-8.971245463239029,15.460036409320299,622.6359651019741,672.974665877555,248.373203460127,-25.364375834935302,-72.77448361634741,3427,0,-900,15047,4983,-619,-1035,1140,680405,500,4.731535
302.688802645571,442.088728728937,520.531626911252,726.168708752113,1115.9870950369198,558.259038337157,-108.258036798507,51.5872604780598,3427,0,-814,14982,5238,-238,-1718,455,680406,500,4.731615000000001
145.195846899005,228.644817608409,126.891391346231,346.413119155099,2194.3898305516896,1680.11886705825,34.474370101233895,13.407075721770502,3427,0,-814,14982,5238,-238,-1718,455,680407,500,4.731695
-42.1359415937332,81.4571484666085,106.841757720336,443.41574330322305,2315.18060593517,2513.6292192128,122.754454359354,-87.89660943462509,3427,0,-814,14982,5238,-238,-1718,455,680408,500,4.7317800000000005
-22.414976827800302,-31.1020352884661,-154.442037095898,-231.95749323203898,731.091015518323,1606.51995308668,-7.703138721873981,-84.5821704779519,3427,0,-814,14982,5238,-238,-1718,455,680409,500,4.731874
-99.3327937519934,-309.20375440584,-452.206757715903,-559.0264592007441,-204.204028198117,588.444689819356,-0.38805769616738,-92.23701241984959,3427,0,-814,14982,5238,-238,-1718,455,680410,500,4.731968
-140.505057643924,-475.50211280654196,-674.685571572278,-1015.15111496119,-1390.1602774613098,-1079.76888174989,55.529256795998705,-53.08656827523371,3427,0,-814,14982,5238,-238,-1718,455,680411,500,4.7320660000000005
-1.2895806520536999,-319.718809594633,-574.373337789439,-1202.19717552533,-2702.36394568728,-2330.60296718043,159.439674826048,48.183070258121006,3427,0,-814,14982,5238,-238,-1718,455,680412,500,4.732165
-433.229169746483,-1025.45888964797,-907.5708835244881,-367.2765904931,-772.3746021800031,-1075.3972451657198,206.39643097174098,-112.175344279385,3427,0,-814,14982,5238,-238,-1718,455,680413,500,4.732265
-764.358133600239,-1867.4325372146,-1481.03349570034,-303.97758889337996,60.2976916959451,32.0076218784088,304.433508590388,-61.840111446334,3427,0,-814,14982,5238,-238,-1718,455,680414,500,4.732373
-968.097491065128,-2267.5326170912,-1496.7412646279001,240.509816980222,1846.50324509485,1479.35583037866,106.091727848398,-171.130434818682,3427,0,-814,14982,5238,-238,-1718,455,680415,500,4.7324910000000004
-775.7310801884739,-1619.1137643125799,-957.683733892161,355.84615493178705,2103.81117456997,1731.97617486166,-46.05252129089789,-221.41196178097698,3427,0,-476,14847,5340,-169,-1556,-294,680416,500,4.732604
-411.830875182932,-204.60038032627202,213.658570023137,585.996547083138,1595.6199549742498,1328.4825865114099,-189.338788973459,-360.494060594123,3427,0,-476,14847,5340,-169,-1556,-294,680417,500,4.733836
657.076008115342,1708.01115377329,1483.6520497357699,765.550050275924,517.3394973319081,379.440197947784,119.338769905793,67.6164493770339,3427,0,-476,14847,5340,-169,-1556,-294,680418,500,4.733961
1017.9801415470698,1601.22879195097,769.1164869688221,-79.7336347720993,-560.414580303623,-699.87131931301,146.90172355814101,291.628881552373,3427,0,-476,14847,5340,-169,-1556,-294,680419,500,4.734079
278.23528381454497,215.771882538451,-508.92411144357203,-646.146941422572,-1240.10805725804,-1642.45258722716,79.70881609636129,110.36520133248999,3427,0,-476,14847,5340,-169,-1556,-294,680420,500,4.734212
296.008263291907,209.04025451582902,-629.170321220648,-1207.4491208081,-2152.7453351900303,-2044.5256080578501,156.45133903971902,164.891156108817,3427,0,-476,14847,5340,-169,-1556,-294,680421,500,4.734335000000001
454.659655663301,434.921118264087,89.8378797284095,-645.717414478713,-1573.2193459013902,-1268.87679112219,224.279406674905,244.56713458872397,3427,0,-476,14847,5340,-169,-1556,-294,680422,500,4.734468000000001
-67.4167088119721,-411.306838177377,-281.3322445862,-433.81764924127503,-1213.5303594256698,-646.9575711928189,205.789470344374,55.920789393712795,3427,0,-476,14847,5340,-169,-1556,-294,680423,500,4.7346010000000005
-508.439859104488,-796.784046968911,-76.4521134223323,300.151003795676,681.027489781292,588.312036257528,46.4103879288887,-182.046773637529,3427,0,-476,14847,5340,-169,-1556,-294,680424,500,4.793857
-292.03808306891005,-17.7143163594883,986.4567878817909,1821.92672533332,2846.0486126745195,2027.7506600975198,14.2318140767748,-178.53639025765,3427,0,-476,14847,5340,-169,-1556,-294,680425,500,4.79392
338.052453712327,1135.21328653872,1837.3043123373102,2919.17881830051,4756.35377680571,3165.9165841806102,-284.863226894173,-156.181660319446,3427,0,-248,14798,5247,-869,-936,155,680426,500,4.793970000000001
367.98848507762904,1392.24584479211,1418.3779848498498,1840.22219023504,2949.8556092590998,1473.4681305952301,-435.125088797533,-234.468339281855,3427,0,-248,14798,5247,-869,-936,155,680427,500,4.794023
285.24291408946704,874.86689222767,713.459830685868,627.592739289015,1314.86288873415,1035.33600339148,-102.52023683791,-149.787545718485,3427,0,-248,14798,5247,-869,-936,155,680428,500,4.794077000000001
117.063538416667,25.0470736491261,-79.07680825504941,-68.0763575724268,411.758423079591,1321.1131355622801,424.68438184371905,43.1537360801594,3427,0,-248,14798,5247,-869,-936,155,680429,500,4.794133
503.502696161158,182.566192041035,-445.33359481103304,-1678.2456832931198,-2774.64454529466,-857.2460847648331,551.765173635154,435.41440262971395,3427,0,-248,14798,5247,-869,-936,155,680430,500,4.7941910000000005
-87.7812916498515,-305.83651227864897,-364.782065058476,-830.582031881582,-830.185226522648,171.619389579108,92.9145436473773,-57.6996991420165,3427,0,-248,14798,5247,-869,-936,155,680431,500,4.794251
-38.6616045685951,-208.774049579515,-155.041375057423,-120.670794471982,-303.207689883886,-870.418705957767,322.494008891867,19.794272169238,3427,0,-248,14798,5247,-869,-936,155,680432,500,4.794313000000001
581.250311920012,478.36354093439905,-25.4260173649527,-691.615308066132,-2226.4211624520003,-2478.76394483994,521.368978078943,441.149694736232,3427,0,-248,14798,5247,-869,-936,155,680433,500,4.794379
383.49485552794096,381.77941232058197,-43.508979170001105,-519.036840009852,-1444.40307294534,-1654.11123669124,256.641703507979,204.334691753727,3427,0,-248,14798,5247,-869,-936,155,680434,500,4.794448
-126.823681093694,-344.642455949681,-671.524632781278,-1061.10922133332,-1991.7890812322698,-1453.82695433486,279.421664269234,30.093753469991498,3427,0,-248,14798,5247,-869,-936,155,680435,500,4.794517
-323.696873188543,-740.999325744924,-862.372998880688,-1365.8215314979,-2670.39202017066,-947.925404198992,442.02441606024496,63.733004776178895,3427,0,-217,14807,4942,-1141,-310,571,680436,500,4.79459
-74.8880074287299,-604.698215124197,-54.076733195805,159.830597703432,328.495343852032,701.460170024482,196.137043402181,20.431211114162604,3427,0,-217,14807,4942,-1141,-310,571,680437,500,4.794671
277.147566620988,-565.475128375925,71.3615603846265,975.7707152241491,1927.4940902550898,1198.34397375345,62.6246651916881,191.324811216211,3427,0,-217,14807,4942,-1141,-310,571,680438,500,4.7947500000000005
147.777894833707,-384.613950108294,-71.09340005414559,557.187817681523,1274.4950571603,1083.7842820461399,24.1892596070538,88.7840816096868,3427,0,-217,14807,4942,-1141,-310,571,680439,500,4.79483
468.19754334288905,1061.03026083426,404.35607454588205,-13.2016614689783,211.23337741397,528.395578567113,34.9264473531512,52.113887711311705,3427,0,-217,14807,4942,-1141,-310,571,680440,500,4.794912
197.293427908939,691.886620242381,-41.38796777126839,-1030.6097483505698,-1511.5249946875301,-274.47730535769404,-55.833939758653294,-72.543838613783,3427,0,-217,14807,4942,-1141,-310,571,680441,500,4.795001
-300.784561320528,-105.947740925592,-253.99611470929798,-336.959796649084,-1254.0366447986698,-1298.85616799316,-184.214841462323,-310.916583447717,3427,0,-217,14807,4942,-1141,-310,571,680442,500,4.795094000000001
-155.639474251686,415.94286677544,975.005329134176,2172.5593644325304,1222.30211464193,-348.736654365552,-446.134811848518,-506.550522135687,3427,0,-217,14807,4942,-1141,-310,571,680443,500,4.795194
-368.06199569033896,-75.3651034733048,62.997674835263794,122.15306005461001,-105.585787620454,-175.653020718542,-227.768254625669,-469.172408683691,3427,0,-217,14807,4942,-1141,-310,571,680444,500,4.795293
155.567372165126,370.60551488329696,597.346168708988,1577.44654953392,1912.1629206370899,1282.17749789916,-18.0821627040277,-80.4564771641744,3427,0,-217,14807,4942,-1141,-310,571,680445,500,4.7953920000000005
82.3663548402837,14.0078744783532,-128.115681360243,245.927567701059,1100.28731758441,431.167407595727,66.7553229883197,23.1719434136758,3427,0,-294,14796,4685,-1623,109,361,680446,500,4.795491
-83.3359226323664,-20.138377069612,-174.72807212593003,-106.033141285763,658.243262023752,27.0222837090841,-94.92457696940978,-103.05628296209,3427,0,-294,14796,4685,-1623,109,361,680447,500,4.7955890000000005
-133.678593761608,-118.45093430159599,260.22167866048403,949.575280021149,2182.35496069858,1458.40364014171,-219.800602766743,-192.92303045641202,3427,0,-294,14796,4685,-1623,109,361,680448,500,4.795704000000001
-851.1848497834,-1419.95162520953,-881.383223814075,-387.064398673916,1359.9944147532199,1742.957167221,88.17730987770479,-358.178432528279,3427,0,-294,14796,4685,-1623,109,361,680449,500,4.79582
-1326.16724396768,-2422.91975246824,-1946.0913700530102,-1143.54302910337,-813.5823944154539,-392.902091429627,516.524073788256,-301.73817429004697,3427,0,-294,14796,4685,-1623,109,361,680450,500,4.797125
-1391.70512368885,-2844.8450618013694,-2853.33406797785,-1952.14229277274,-2189.8306715924105,-2132.40008293861,487.346896886185,-157.54747552413,3427,0,-294,14796,4685,-1623,109,361,680451,500,4.797255000000001
-544.110894176702,-1575.0023970014902,-2005.1106158403,-1720.05243237483,-2459.66076765725,-2144.8232542466103,134.55367286317102,-69.8072694920702,3427,0,-294,14796,4685,-1623,109,361,680452,500,4.797378
303.85128233584703,58.655563586391494,-409.17255451623396,-902.4955913765301,-1788.9220342185602,-1633.3028526205999,-33.971133265644305,56.5898420340382,3427,0,-294,14796,4685,-1623,109,361,680453,500,4.7975010000000005
339.25908729614497,439.665001514601,-355.567536222865,-578.073542555969,-292.73605768717204,-426.521277607768,47.0527252551983,6.506963223917411,3427,0,-294,14796,4685,-1623,109,361,680454,500,4.856212
446.75489444175,640.006119895843,205.186370345415,343.536358401092,876.715947927936,276.283783812658,-128.32986779150102,-19.1008339258842,3427,0,-294,14796,4685,-1623,109,361,680455,500,4.856248
240.85445399262198,631.12107870623,875.1979450604409,1225.7989827072,1393.5445348346,-284.800051574421,-319.404712106276,-186.493813989917,3427,0,-408,14916,4653,-905,383,461,680456,500,4.8562780000000005
418.120638130757,1059.5705953234599,1057.82249010215,853.8193797167329,602.0567593516901,31.655743904702803,-144.36977806780502,-64.5964285330847,3427,0,-408,14916,4653,-905,383,461,680457,500,4.856307
673.6501981783371,1390.20973645884,1087.0755170106402,133.67156687958,-52.37115118905789,450.48930474294997,53.328671194962205,84.5999000292504,3427,0,-408,14916,4653,-905,383,461,680458,500,4.856339
324.745822172001,755.7127211388429,345.76722271379504,-605.313306004915,-810.9179553923309,-172.402497692383,-129.067381589732,-103.95647054200501,3427,0,-408,14916,4653,-905,383,461,680459,500,4.856372
-5.901789447001651,146.996978659299,-213.38545567344397,-880.904067774449,-842.475532200478,-297.592056778783,-211.793505428999,-233.510565801407,3427,0,-408,14916,4653,-905,383,461,680460,500,4.856404
-143.608306872513,251.436863407143,407.073448096751,197.48245296345002,258.271040651889,328.078099259699,-210.00356338510798,-389.262546963175,3427,0,-408,14916,4653,-905,383,461,680461,500,4.856438000000001
-426.66398474297597,-217.835200165631,208.87123529508202,288.52316992107103,294.871732937609,722.3292118261451,37.2275960247498,-348.27998237509695,3427,0,-408,14916,4653,-905,383,461,680462,500,4.856474
-423.944230640569,-786.575635832269,-884.2169477036219,-1011.8353779591,-492.81187186323194,111.919890009565,164.107854464848,-96.1275797090493,3427,0,-408,14916,4653,-905,383,461,680463,500,4.856512
73.643838924123,-44.3877629366471,-359.71365211601403,-870.883414790849,-1513.11377985511,-572.3583326752411,121.454094947083,116.111146762734,3427,0,-408,14916,4653,-905,383,461,680464,500,4.8565510000000005
474.584315077343,818.71430161444,416.627882914268,-492.164615419199,-2093.30407370185,-347.734824718151,-5.14021049870644,176.632975961547,3427,0,-408,14916,4653,-905,383,461,680465,500,4.856592
262.326574838866,708.065834064619,794.703460278339,771.247038453905,933.182095753611,399.78904826060204,-38.7287690232624,49.5677889693761,3427,0,-530,15144,4749,128,618,615,680466,500,4.8566400000000005
56.68416571975099,313.56616432569,600.597392720752,839.2743373746629,1348.03456089366,571.526910086453,26.4845215655514,18.4933217307553,3427,0,-530,15144,4749,128,618,615,680467,500,4.856683
-272.598218271654,-349.29959114547796,-332.442999217543,-269.18265158619,632.7327468067231,665.573000261851,-88.98567563714458,-176.161954637035,3427,0,-530,15144,4749,128,618,615,680468,500,4.856730000000001
-400.99612357956397,-491.10081111488404,-521.427695587161,-425.690375152655,281.106095227879,603.394128089538,-290.460082737496,-354.467050891719,3427,0,-530,15144,4749,128,618,615,680469,500,4.856777
-263.43837615996,-111.38267131056601,-295.627221587696,-199.622131996963,697.056610136729,653.2676458712671,-259.851726843684,-363.58222295437,3427,0,-530,15144,4749,128,618,615,680470,500,4.856825000000001
-426.705720802536,-369.41839552705596,-604.2891659631861,-849.8721376661271,-844.92597821966,-126.291674067499,-31.8598986794241,-348.719391653663,3427,0,-530,15144,4749,128,618,615,680471,500,4.856873
-96.0130626204773,-189.950197661645,-513.5618673721331,-1201.79467936009,-2131.10779518637,-1354.2280737379301,355.26670088159204,-5.0984653949271905,3427,0,-530,15144,4749,128,618,615,680472,500,4.856925
177.88517742638902,47.902807867620105,-237.12310692574798,-765.209510823159,-1375.8894737710098,-1512.41228705354,180.053330623603,80.82628157862929,3427,0,-530,15144,4749,128,618,615,680473,500,4.856985
117.438534325192,103.909337036777,-94.3079252276802,-385.721127519908,-648.929387392011,-769.221405998513,128.257976576861,-26.118187563144602,3427,0,-530,15144,4749,128,618,615,680474,500,4.857039
97.4919821883959,213.868435286451,258.39546285546396,378.59194530389505,691.063178173848,679.2223901812099,157.597850702703,-26.3890225868672,3427,0,-530,15144,4749,128,618,615,680475,500,4.857092000000001
-239.21436883515,-175.420892919297,124.71726983773998,370.148414644616,519.700634912297,1026.36818177439,145.821553306538,-83.2989781125216,3427,0,-674,15357,4948,-407,291,372,680476,500,4.857152
61.309775014291496,99.0118213063106,106.98435597750401,140.190383409266,241.145557595184,914.0028151626469,163.998983797152,87.07916762586679,3427,0,-674,15357,4948,-407,291,372,680477,500,4.857213000000001
443.54080065249605,564.787854156224,243.49936377781003,-147.51999511360202,-500.00743827965897,-178.81653450062697,260.448939820693,242.407542969682,3427,0,-674,15357,4948,-407,291,372,680478,500,4.857274
55.7965559786535,73.7100102504482,-218.941470855149,-522.0626207021411,-398.132300471596,-294.048040832218,260.284584951063,51.950481940293706,3427,0,-674,15357,4948,-407,291,372,680479,500,4.857334000000001
-203.883256715373,-27.6521673094248,371.80974283348803,618.5868027940741,1410.73611231419,940.684681033483,-72.7929325422738,-186.811282980838,3427,0,-674,15357,4948,-407,291,372,680480,500,4.857394
-291.375367101282,227.019954900257,996.906515648705,1167.6011391075199,1232.3239524309802,445.74903972772904,-138.365416381625,-339.10941631649604,3427,0,-674,15357,4948,-407,291,372,680481,500,4.857461000000001
-147.21432329434901,267.82865853235097,804.2548610677479,673.236303808255,367.42525444240897,24.551327633322202,-31.195507835247604,-181.431026685168,3427,0,-674,15357,4948,-407,291,372,680482,500,4.857533
-139.003509642498,-546.5045575479741,-204.869479995803,153.218716913572,628.296170984278,256.535069946141,179.974411115574,50.8038841743255,3427,0,-674,15357,4948,-407,291,372,680483,500,4.857602
-113.00234480857,-981.967212788179,-991.7035503874071,-531.235352408898,111.756376234931,54.3258902246016,101.3075415559,31.700123079004698,3427,0,-674,15357,4948,-407,291,372,680484,500,4.8576760000000005
-674.625495867949,-1225.12906166585,-1079.01295023377,-513.486334609188,94.56081033797821,260.088214108255,-59.8556118464912,-344.914977857145,3427,0,-674,15357,4948,-407,291,372,680485,500,4.857745
-577.311169119464,-411.835227634292,-558.010737187113,-274.33339812656004,92.4824640635052,639.163901816995,-102.735525029188,-442.53947050170996,3427,0,-696,15505,5059,-1745,-62,56,680486,500,4.904028
222.382928162027,636.77382328664,76.750482909265,54.2622048888006,254.39457967699903,393.383004683128,-260.350499276828,-317.322063612984,3427,0,-696,15505,5059,-1745,-62,56,680487,500,4.904103
395.959167637659,369.461673566024,-165.946089720353,-392.39487821082,-442.334508169151,-267.711240371224,-62.213315774686606,-26.7065257382346,3427,0,-696,15505,5059,-1745,-62,56,680488,500,4.904155
111.222740916564,-459.96845644561097,-1038.6217796641902,-1129.5951826991802,-1668.95609491359,-787.377351857896,115.564572937379,62.525394246564204,3427,0,-696,15505,5059,-1745,-62,56,680489,500,4.904208000000001
-200.768445231311,-693.70620403369,-1164.9866543866199,-807.1553252415621,-1312.06274061825,-781.787515704113,135.099702778913,-80.902334485203,3427,0,-696,15505,5059,-1745,-62,56,680490,500,4.904262
-114.338390542805,-211.981777775218,-533.486883449834,304.29915684109403,220.995846480248,-532.768975049374,-67.2198391938,-259.304401219939,3427,0,-696,15505,5059,-1745,-62,56,680491,500,4.904321
-143.263995704678,298.516394294566,711.239183104364,988.4635992461699,291.98159815190604,-470.68229460949095,-233.22283944929902,-412.612276739092,3427,0,-696,15505,5059,-1745,-62,56,680492,500,4.9043790000000005
84.5637776433432,590.959885600139,826.4038457147541,272.800745256245,246.794868789031,-139.05348804855,-217.27559693018003,-374.183943417855,3427,0,-696,15505,5059,-1745,-62,56,680493,500,4.904438000000001
129.675083422742,152.305932727293,-183.82911124534402,-705.228472924064,236.943860978528,288.807825514174,-137.91921478928998,-249.764890182181,3427,0,-696,15505,5059,-1745,-62,56,680494,500,4.905731
-11.612594545615098,120.597335389,-112.168247025576,-403.990059534961,118.888230635115,440.022017066076,-125.13566490012501,-214.33943419752202,3427,0,-696,15505,5059,-1745,-62,56,680495,500,4.905805
-132.254261805647,-0.15718693367671202,96.73286226321942,0.8269886634079741,-350.47773505764803,156.057231529034,-143.31297911464898,-243.941464359639,3427,0,-657,15412,5029,-1789,77,99,680496,500,4.9058910000000004
-197.721889358101,-326.102967865299,-447.25698498694703,-865.4440401579781,-542.6758564808989,686.529390234849,39.4790726732463,-158.88343714457,3427,0,-657,15412,5029,-1789,77,99,680497,500,4.905965
26.8159556885075,-4.018012171960439,35.147647293750204,69.8675206986081,956.9161239016679,1119.91926017794,110.674809705175,-50.0377094303258,3427,0,-657,15412,5029,-1789,77,99,680498,500,4.906036
1.10593576089013,-108.29720823047701,-98.633499625721,6.70627778282505,128.277566806588,-620.5012850674681,166.070930660178,12.732152362237699,3427,0,-657,15412,5029,-1789,77,99,680499,500,4.906118
-331.350665683683,-705.161836136947,-536.813995490782,-69.5789295886643,9.579251308576199,-998.5996884889321,86.6130115533015,-128.006585423485,3427,0,-657,15412,5029,-1789,77,99,680500,500,4.906201
-190.594363828772,-337.567591037136,-136.74212756427,2.16567843954545,-184.15561971429298,-952.5763583710069,71.7437129492173,-93.0771816252964,3427,0,-657,15412,5029,-1789,77,99,680501,500,4.906294
62.692497441952604,339.473269110778,395.47606404474897,275.738508401118,-39.5776963250537,-762.997177751211,-43.31108931673229,-125.16131925489799,3427,0,-657,15412,5029,-1789,77,99,680502,500,4.906385
450.94462999200897,945.440027641132,939.913672023918,912.5765681188199,492.744857502956,-19.2575785290683,-150.964930483373,-25.6653765894007,3427,0,-657,15412,5029,-1789,77,99,680503,500,4.906549
613.718972394214,753.774195760605,313.83867058542097,-158.873780704598,134.960086639388,396.202530430572,25.9492029714165,129.23262297269,3427,0,-657,15412,5029,-1789,77,99,680504,500,4.906647
607.487165025988,738.3778802719901,603.853771282244,12.3263356917014,-30.543978474394002,567.959795390547,82.3972383721266,163.935406117467,3427,0,-657,15412,5029,-1789,77,99,680505,500,4.906735
183.935909184947,-71.852160197217,272.11333801155,359.26863541683997,508.598560128448,877.6681289904519,110.312232161174,63.04890148527921,3427,0,-696,15032,5050,-502,129,-12,680506,500,4.906843
-526.494734944834,-1555.6588110070402,-750.123703596066,302.37828126779596,834.289201625186,666.72638125479,119.986867612344,-51.4864178327844,3427,0,-696,15032,5050,-502,129,-12,680507,500,4.90695
-662.5913570657721,-1878.0666911478602,-1107.6682397495,-115.537144661939,450.320086250344,261.63091696967604,114.629786416073,-1.61503037181683,3427,0,-696,15032,5050,-502,129,-12,680508,500,4.90706
-590.2632075913131,-1279.1469021777198,-712.413417998469,-505.373018677288,-624.49415246179,-262.6343351822,-7.92695459828246,-158.071844569989,3427,0,-696,15032,5050,-502,129,-12,680509,500,4.907184
-95.47920725567378,515.77060888405,207.60024687775902,-305.998051442381,-413.866561147472,-337.131510277744,-185.596455404826,-344.36853293480794,3427,0,-696,15032,5050,-502,129,-12,680510,500,4.967951
687.278661556426,1727.78036771331,834.8866003672591,94.61714821288479,-445.34586699196404,-612.4156461422099,-201.046818276111,-98.0331316211959,3427,0,-696,15032,5050,-502,129,-12,680511,500,4.968015
616.54403252792,1100.06880756491,608.628673629602,218.933089010854,-428.714771639468,-581.14544045215,-97.04679875279541,57.780249698087594,3427,0,-696,15032,5050,-502,129,-12,680512,500,4.968065
376.73792325941,480.152841943433,-85.8633977543795,-690.814379446034,-286.068765754986,125.504537805216,188.507609458873,157.98329484381202,3427,0,-696,15032,5050,-502,129,-12,680513,500,4.968117
269.098706978984,461.225970094674,121.698500237078,-160.166828817484,14.8002757398644,136.64639181311898,25.290335454570602,51.2233440631535,3427,0,-696,15032,5050,-502,129,-12,680514,500,4.968181
233.34909902847699,483.260956450831,308.776194062317,262.498251117533,603.079196507053,467.630049409578,-71.29619379242651,14.363076579757,3427,0,-696,15032,5050,-502,129,-12,680515,500,4.968236
155.305681209866,348.98364867921896,253.01898088306197,321.132458275242,766.614695724216,733.843571957666,-59.349172090413,-25.018688656855396,3427,0,-668,14684,5135,605,-15,-205,680516,500,4.968292
-11.2064021282713,87.18246485944842,-25.644785240525398,16.304461093241102,327.85516374793997,638.9552159775051,-49.5365068910178,-112.60124746291001,3427,0,-668,14684,5135,605,-15,-205,680517,500,4.968352
65.84167387499471,146.645997553831,80.7709304312011,118.74345245346201,304.979135164584,448.83335272705904,73.4426387288258,-18.2238501750398,3427,0,-668,14684,5135,605,-15,-205,680518,500,4.968412000000001
18.7004652354226,26.486876557697503,-98.35685946722509,-77.2315924819268,151.202304656297,9.650280811940322,146.189593302784,43.1758126900531,3427,0,-668,14684,5135,605,-15,-205,680519,500,4.968478
-31.8277710049879,-80.2478021216812,-275.243874134379,-367.149694503576,-482.627065172826,-480.692266230646,137.528912711598,29.276062476332303,3427,0,-668,14684,5135,605,-15,-205,680520,500,4.968545000000001
-17.1302626400429,-11.7408496232238,-106.074943682295,-144.634850928211,-217.13193764598702,-168.901873004856,17.671406377106898,-41.094796570599996,3427,0,-668,14684,5135,605,-15,-205,680521,500,4.968616
-173.53998221061198,-244.20031575858602,-366.325303921127,-422.759945547761,-26.4934804929071,132.045338679862,-44.046495728020105,-160.272578387638,3427,0,-668,14684,5135,605,-15,-205,680522,500,4.968686
-269.358645781118,-365.428943852079,-477.23062849009904,-519.514692964643,-767.387414990866,-347.88039672269997,-65.24209626205271,-190.50612853129903,3427,0,-668,14684,5135,605,-15,-205,680523,500,4.968762
-56.9025748534186,-34.962288997951,-139.546438378864,-232.448484921595,-367.12207727768697,77.54112744051959,-26.5456735096523,-32.536606668029,3427,0,-668,14684,5135,605,-15,-205,680524,500,4.968838
-287.326987610606,-215.43167484644798,-203.57222652144299,-29.4514387535164,442.551418295945,1089.91980250244,-99.63102678611179,-191.55607469810602,3427,0,-668,14684,5135,605,-15,-205,680525,500,4.968916
-271.394789769605,-216.752101044403,-175.36582760233398,256.473951269203,976.766234138777,1463.5531541254002,-142.981152142922,-261.132547736866,3427,0,-500,14600,5185,1233,284,-69,680526,500,4.969017
153.772564023326,155.601066669449,29.3820524037583,88.6516284813406,93.15183161993629,336.875069352507,96.4396240661736,56.7373854707694,3427,0,-500,14600,5185,1233,284,-69,680527,500,4.969109
233.76324189401902,132.755960791837,-0.9647054219385609,-360.296126103203,-439.570575687452,-249.06094460474603,362.679160375672,248.404796252726,3427,0,-500,14600,5185,1233,284,-69,680528,500,4.969196
-172.202345173107,-397.61341647105303,-295.268970739562,-298.800254595117,-607.874532974674,-339.74069774802797,376.14939920970903,40.1704407660291,3427,0,-500,14600,5185,1233,284,-69,680529,500,4.969282000000001
-709.2347894648559,-1223.4429035765402,-907.8602264820371,-166.510878184839,-290.098453758634,-436.230953312595,470.923861960997,-115.77778248745001,3427,0,-500,14600,5185,1233,284,-69,680530,500,4.969375
-584.6542437716851,-954.734387685545,-611.438057270832,-257.472396179859,-1113.12506930367,-920.053936598531,205.753915713925,-141.580739376368,3427,0,-500,14600,5185,1233,284,-69,680531,500,4.969479000000001
