CH1,CH2,CH3,CH4,CH5,CH6,CH7,CH8,Vbat,Trigger,AccX,AccY,AccZ,GyX,GyY,GyZ,N,fs,Timestamp
-297.411157699738,-323.818163951393,-264.83938466547994,-467.84918247713404,-734.612253692874,-595.903762050963,-25.0789512728225,-135.21833887614798,3427,0,-784,14813,5205,444,165,-25,681200,500,6.325688
-582.088073732972,-932.893704306916,-873.637337494525,-727.9805799087919,-770.193195230851,-628.371470067766,-34.2435048144544,-203.041337050265,3427,0,-784,14813,5205,444,165,-25,681201,500,6.325764
-717.1064547795689,-1233.22149405081,-1028.6063741043902,-664.848639963311,-479.350812463963,-349.366489407781,-13.479881195409698,-216.34710871626203,3427,0,-784,14813,5205,444,165,-25,681202,500,6.3258410000000005
-1000.4663047284402,-1370.7510566720698,-861.613528421381,-458.385786916566,-193.11535900255,-355.062164979172,-207.624217606906,-415.3087868128201,3427,0,-784,14813,5205,444,165,-25,681203,500,6.325923
-766.481529844459,-846.661867568735,-401.52961254480795,-43.80901132812139,277.371259254927,-69.5051243359339,-383.436027554446,-450.782675682334,3427,0,-784,14813,5205,444,165,-25,681204,500,6.326008000000001
-283.97083675972,-112.447507622419,53.8183548505185,298.01757368529803,471.67265310697303,307.888299560989,-236.057239207788,-265.18421377381304,3427,0,-784,14813,5205,444,165,-25,681205,500,6.326105
169.669323423033,459.565596266068,332.553544994094,435.82079414118203,384.28643603224197,247.283443510009,-76.5971825370216,-63.01189004024489,3427,0,-784,14977,5163,214,185,-29,681206,500,6.326199000000001
43.252498638758,-62.74095879879311,-53.046383704291706,-62.12407226522921,-96.54086644639031,273.88163524691504,140.499346644967,68.0697198531125,3427,0,-784,14977,5163,214,185,-29,681207,500,6.326289
-367.78628031001404,-972.046106178313,-552.0847340783799,-354.105250840861,-305.035891281033,56.669090075534804,186.93617906031398,23.6061361172469,3427,0,-784,14977,5163,214,185,-29,681208,500,6.326385
-751.8152318040669,-1406.87210854015,-865.001444941619,-661.307506645651,-682.833405953395,-241.30785352300202,77.7613629919942,-229.983585243346,3427,0,-784,14977,5163,214,185,-29,681209,500,6.326481
-466.202740873385,-669.5547535941,-542.947683610721,-489.63680852894305,-579.8817946776401,-350.717438234075,43.4840769000002,-238.917153926101,3427,0,-784,14977,5163,214,185,-29,681210,500,6.326592000000001
431.98405446668,945.9968065737049,347.50348446134,-61.7166620750504,-328.137387117284,-594.890216201427,-66.8853299162001,-102.642831812729,3427,0,-784,14977,5163,214,185,-29,681211,500,6.326708
473.259418822068,801.2867928409249,283.756001643138,-146.942235142516,-567.453269507852,-1171.8767110765302,-118.236554639065,-37.628492305753795,3427,0,-784,14977,5163,214,185,-29,681212,500,6.326815000000001
321.213998610969,473.515648555011,234.70590190018999,52.119928303931395,-450.978425583453,-660.415972598945,-145.091964908293,-30.0681021991186,3427,0,-784,14977,5163,214,185,-29,681213,500,6.3269210000000005
538.7408166300451,833.516516423202,837.162936358131,915.4979470426621,-497.921050008154,56.3516004477278,-68.25670422613621,11.186428205924999,3427,0,-784,14977,5163,214,185,-29,681214,500,6.327035
412.67508815450105,285.67368800845003,-20.793311289511603,-343.652508471772,50.002346319757606,653.860257587454,128.858775087167,138.381266701501,3427,0,-784,14977,5163,214,185,-29,681215,500,6.327177000000001
-132.187219754822,-573.337791893631,-222.099653922487,103.296990225179,645.737454781192,979.5451686527811,197.30187790951499,50.3268392619211,3427,0,-719,15116,5083,-66,8,11,681216,500,6.327304000000001
-486.39713479761804,-1147.32562044577,-211.20293981267602,632.110681810678,1073.02089667291,1133.18143295916,301.651147068129,65.7259124894626,3427,0,-719,15116,5083,-66,8,11,681217,500,6.327432000000001
-644.371624191757,-1251.01481149113,-512.470347853377,285.76159338437697,688.9981684676311,897.293608728389,265.561007358774,13.3553592329845,3427,0,-719,15116,5083,-66,8,11,681218,500,6.327558000000001
-217.01900987629799,-0.87138411810156,-442.26935264654503,-188.441814302903,35.4700451678655,291.661453154811,37.124358348723,-164.56750116217898,3427,0,-719,15116,5083,-66,8,11,681219,500,6.32768
219.911607959861,510.213213467156,-339.14029067126097,-339.71099669349496,-258.112141826161,-374.98760965326795,-147.717472731485,-135.55030213831898,3427,0,-719,15116,5083,-66,8,11,681220,500,6.3860410000000005
-343.362740646611,-315.73080884036597,-569.19703865645,-375.790752655361,-276.725265306828,-808.7103049440781,-280.557922153734,-346.383000297705,3427,0,-719,15116,5083,-66,8,11,681221,500,6.3860790000000005
-79.7488663758268,180.396888977732,-105.70488334062999,-308.055594923877,-183.795511626493,-784.830462742713,-236.82913129450802,-277.314055389143,3427,0,-719,15116,5083,-66,8,11,681222,500,6.386108
274.982069173857,403.997950668912,88.66064591857142,-98.0547521787521,-112.887709701899,-448.18795949290495,-140.968573885213,-87.8597057622392,3427,0,-719,15116,5083,-66,8,11,681223,500,6.386138000000001
286.404917488748,375.3605556892,433.63242116302695,530.675906132004,-15.036067395471001,119.786062499916,33.2001264549326,10.7887990957825,3427,0,-719,15116,5083,-66,8,11,681224,500,6.386169000000001
672.3162304614959,1139.08183817682,1519.5889466450303,1664.3073467803501,890.5036821090621,1200.39192897989,496.360195912304,280.123081763624,3427,0,-719,15116,5083,-66,8,11,681225,500,6.386202000000001
1146.79412454655,1912.10239393427,2425.96899207309,2769.8044545711305,2346.16692143417,2294.28743439063,973.5918559074049,598.751528091845,3427,0,-599,15261,5138,-243,-100,0,681226,500,6.386234
1699.77026463489,2181.5026880680803,2436.50095814641,2751.3730492280397,2651.6830361184802,2460.1859778917897,1193.40792592621,1151.87661508529,3427,0,-599,15261,5138,-243,-100,0,681227,500,6.386268
1749.89485689296,2080.7607970552103,2105.95084071369,2212.3408203134,2215.9201493394503,1908.4189706642103,921.508982266241,1167.38866929139,3427,0,-599,15261,5138,-243,-100,0,681228,500,6.386303000000001
1252.76439678416,1730.7712587614099,1799.32088071469,1518.9662402469,1167.40187293454,1014.66251854377,439.313862531388,619.20707246149,3427,0,-599,15261,5138,-243,-100,0,681229,500,6.386340000000001
297.713354217529,409.225580907892,321.841369102709,-275.82378526710096,-368.916614717076,-260.502446719154,436.146305097383,261.689840655541,3427,0,-599,15261,5138,-243,-100,0,681230,500,6.386379000000001
-879.946979727945,-1449.3495979487197,-1874.56000253127,-2314.51396864353,-1705.17352962832,-1861.5818750537,-123.49672374682301,-211.616344858194,3427,0,-599,15261,5138,-243,-100,0,681231,500,6.386419
-940.801751515799,-1374.67800522957,-1440.83804960211,-1370.2656152379302,-1172.33353988521,-2150.72410694888,-665.214974240866,-502.11682565836196,3427,0,-599,15261,5138,-243,-100,0,681232,500,6.3864600000000005
-1189.67146332265,-1398.2721026151,-1142.65657653438,-529.179769888928,13.745959567109802,-1346.03153586196,-946.736943111173,-899.275725336745,3427,0,-599,15261,5138,-243,-100,0,681233,500,6.386519000000001
-899.757416104781,-991.2245653041169,-703.066956291907,187.142681033438,613.609255657706,-877.283797332086,-979.2508416470371,-849.222599560162,3427,0,-599,15261,5138,-243,-100,0,681234,500,6.387192000000001
-981.1145891287309,-1181.49406152044,-934.749279038282,-166.808545982727,-65.04400064889339,-464.042595152045,-712.202664415468,-760.011360764154,3427,0,-599,15261,5138,-243,-100,0,681235,500,6.387244000000001
-518.831828521827,-760.1746840887939,-923.0151219305119,-1200.03058806271,-1627.60396095659,-234.818001927459,-435.54269550408895,-402.579117971007,3427,0,-606,15321,5251,-208,-367,474,681236,500,6.387292
-323.656890993967,-504.079997350695,-818.9728833978301,-1690.63608764877,-1744.5611808467402,-358.245403387933,-154.370550549473,-249.337634799303,3427,0,-606,15321,5251,-208,-367,474,681237,500,6.387342
-137.862790272979,-284.950973819476,-574.092058407958,-1656.31310697814,-1388.9536806940198,-222.7371240473,114.352705545491,-68.18763412581761,3427,0,-606,15321,5251,-208,-367,474,681238,500,6.387393
-304.182135567826,-627.0326251507499,-925.5132685343269,-1699.8659753622198,-1689.6300130247,-695.097540514893,-13.8078203281621,-114.87753330380698,3427,0,-606,15321,5251,-208,-367,474,681239,500,6.387446000000001
-363.075474728103,-740.2311618648241,-885.9423797802301,-794.7743237269749,-979.820283567184,-1200.2880376844,-375.88522649981303,-266.316975960275,3427,0,-606,15321,5251,-208,-367,474,681240,500,6.387503000000001
-300.975820249296,-392.876273331349,-109.471148879966,1033.1673847757002,202.137105489644,-1832.2847162737698,-586.351877326204,-375.11122378916497,3427,0,-606,15321,5251,-208,-367,474,681241,500,6.387558
-266.470997122524,-291.324024579953,45.1602316558128,997.823434260557,596.1918817206749,-1702.0638209204199,-498.030862501124,-349.370150340372,3427,0,-606,15321,5251,-208,-367,474,681242,500,6.387628
-254.249028207938,-239.722081084852,116.37163591734101,213.597011686041,-731.89118981536,-1233.54109874286,-265.706289617345,-314.993103984045,3427,0,-606,15321,5251,-208,-367,474,681243,500,6.38769
5.2731131330074295,280.29311500839003,919.080207131105,1082.81183801906,1078.99013135579,387.887349519355,-216.14059782715,-263.145561397425,3427,0,-606,15321,5251,-208,-367,474,681244,500,6.387753
22.061327125557,-6.16229911986738,-131.670711533399,-1058.99043681985,-135.88610406746702,1147.3493666205302,5.72645848494722,-111.56678395648501,3427,0,-606,15321,5251,-208,-367,474,681245,500,6.3878140000000005
174.78226762221297,51.814707493293106,-297.779383683461,-1302.7804690252199,-1045.41193284493,931.360958629579,37.004606313596,35.142242344678394,3427,0,-775,15322,5157,-536,-610,299,681246,500,6.387876
59.26519579649901,-117.508477120777,-412.114723391016,-1120.13906847013,-857.3740652618,588.846220817417,23.1721237679012,25.987139967037397,3427,0,-775,15322,5157,-536,-610,299,681247,500,6.387936000000001
186.66870179923697,26.330012132413696,-190.113599184901,-747.9414847856391,-704.444372591446,184.004644938512,92.98615723848341,144.144869159325,3427,0,-775,15322,5157,-536,-610,299,681248,500,6.388009
149.499501915037,-39.3217339013936,-288.876137135783,-928.910442634777,-1247.03170565036,-613.287070763123,15.844014169473699,82.94082620250991,3427,0,-775,15322,5157,-536,-610,299,681249,500,6.388079
37.2638821251167,-161.78937395988,-330.74422100454103,-836.290314666025,-1021.5847296044801,-527.095306923671,-25.5542931137607,8.585386801394629,3427,0,-775,15322,5157,-536,-610,299,681250,500,6.448613000000001
-74.5653670799802,-263.840132948593,-275.683098765672,-559.957193508773,-573.332611930877,-266.066120397241,-34.6347420907114,-54.9043889001478,3427,0,-775,15322,5157,-536,-610,299,681251,500,6.4486740000000005
-205.86385871333198,-367.58738782315004,-297.817218172131,-389.408770710666,-307.542533201136,-93.7483624917222,-59.500377697753706,-141.449072095682,3427,0,-775,15322,5157,-536,-610,299,681252,500,6.4487250000000005
-201.358893605153,-368.66252350260004,-284.882126881741,-291.530835433368,-463.426712716464,-222.69643082353298,-16.4784142841236,-86.7892257136991,3427,0,-775,15322,5157,-536,-610,299,681253,500,6.448777000000001
-50.8215829590627,-47.735975231043994,132.357345437864,376.540365286462,-89.6667823902972,38.5293138320558,-146.90490777971002,-136.158170105191,3427,0,-775,15322,5157,-536,-610,299,681254,500,6.448841000000001
226.03110795212,405.32801148435095,675.555720467819,1024.32908197271,572.5843695235379,571.759124913893,-161.41607254889098,-66.6494547645561,3427,0,-775,15322,5157,-536,-610,299,681255,500,6.4488970000000005
165.518893360073,199.827006994863,242.047857140191,480.436321311776,702.8386920618359,572.615842379106,13.0721013141447,8.950086627854029,3427,0,-714,15239,4781,-1071,-224,-193,681256,500,6.448953
75.9434627350129,-69.696577183553,-237.730738302344,-321.019760385941,144.760168652225,144.141003823548,67.12497727398289,104.473874908756,3427,0,-714,15239,4781,-1071,-224,-193,681257,500,6.449013000000001
-276.852855318517,-565.40705421532,-270.28526784980204,-336.33896022744,89.5245465152548,669.0451798465219,96.6503062304691,9.98888702632394,3427,0,-714,15239,4781,-1071,-224,-193,681258,500,6.449074
-717.651057206094,-1461.34723187669,-408.753510255832,16.2324620097061,-111.10551812458999,337.715127508272,19.472284372488502,-102.197760042502,3427,0,-714,15239,4781,-1071,-224,-193,681259,500,6.449156
-1092.2979704483,-2218.84221023379,-774.038193615968,250.11957501107798,-647.0995257597821,-518.163602933288,-19.974103436281396,-168.26084790308997,3427,0,-714,15239,4781,-1071,-224,-193,681260,500,6.449225
-1325.08651918048,-2161.85618823091,-1220.19307886146,-602.107310635532,-515.533471225994,-542.499514115509,-0.296077542530838,-434.229098757845,3427,0,-714,15239,4781,-1071,-224,-193,681261,500,6.449295
-516.451197644114,-117.01067896327,-353.95223203522596,-499.60914870360295,19.858316757687103,-63.6746220468776,-49.4322690640693,-528.915827788413,3427,0,-714,15239,4781,-1071,-224,-193,681262,500,6.4493670000000005
738.2358309942059,1456.11166821886,618.7470977359919,172.038999093289,238.514607440244,214.39901579218002,-33.3594089353574,4.65452716650907,3427,0,-714,15239,4781,-1071,-224,-193,681263,500,6.449444000000001
860.254766970902,940.552258863114,473.235644748318,260.907623330771,155.31336912082,384.648348066024,37.1700902479351,307.968653344898,3427,0,-714,15239,4781,-1071,-224,-193,681264,500,6.449521000000001
622.9675418635891,583.437346468912,412.997434935998,584.174104095466,524.3058509825789,786.286921687308,101.84863973251801,261.659258333384,3427,0,-714,15239,4781,-1071,-224,-193,681265,500,6.449603000000001
-107.26031546739999,-98.1708851503208,-190.083948154585,525.757185177848,713.7705046108459,957.298650150246,51.4346769559779,-106.055892966455,3427,0,-302,15185,4555,-679,188,-473,681266,500,6.449685000000001
-201.311104640976,-84.58478182111871,17.320294765057,819.835323072359,772.647884228994,767.394850619428,15.560704969102499,-240.613276715274,3427,0,-302,15185,4555,-679,188,-473,681267,500,6.44977
-264.367117826769,-209.29575381102,357.283324272721,904.50342114651,743.3100284728571,620.576027714647,215.65197863551998,-119.08184414776001,3427,0,-302,15185,4555,-679,188,-473,681268,500,6.449865
-800.642302267894,-407.965863185585,312.382113009691,421.643334222201,250.229864825727,30.367973077227397,277.092846763961,-354.824571121018,3427,0,-302,15185,4555,-679,188,-473,681269,500,6.449960000000001
-927.721922162571,-122.172064193524,231.260752570699,-198.302886443882,-453.3393058574,-444.152513510373,489.798761989223,-220.917086610687,3427,0,-302,15185,4555,-679,188,-473,681270,500,6.450069
-1097.89678037318,-311.97189791453997,171.018274311791,-143.69579380354799,-590.612979666505,-605.6622459822099,174.137445410364,-349.034673603834,3427,0,-302,15185,4555,-679,188,-473,681271,500,6.450166
-601.087191280705,-59.1597034735605,799.193809640128,1118.6304883145801,-60.3392257812084,-652.8379823629509,-116.720107701549,-274.801908863359,3427,0,-302,15185,4555,-679,188,-473,681272,500,6.450262
174.747090480261,-217.93198343587602,302.522626785561,987.816831320612,309.28425609055597,-427.112503815733,-175.379259131965,-53.417173293652,3427,0,-302,15185,4555,-679,188,-473,681273,500,6.4503710000000005
1161.4977078078698,396.43411981395894,298.97759525431303,1072.2534486683999,416.899524395296,-431.756987186964,-351.554812154325,340.10438925353805,3427,0,-302,15185,4555,-679,188,-473,681274,500,6.450482
909.597479459422,334.321327686193,267.640208205325,1051.25021053723,727.866289908969,-339.93314335274,-335.710984172183,299.39998770097696,3427,0,-302,15185,4555,-679,188,-473,681275,500,6.4505930000000005
834.7128508866589,469.732836559764,310.220881643821,516.701188249077,1043.86491785318,460.292200117372,-44.784121182456104,329.748135443544,3427,0,-257,14864,4656,-826,1221,-376,681276,500,6.450703000000001
1078.72943061846,944.289895595517,427.78236179950204,-68.8300346485921,714.910107232747,754.6270178838749,52.705915596103296,353.74188653798797,3427,0,-257,14864,4656,-826,1221,-376,681277,500,6.45082
1022.5263159219501,1157.49092905433,598.51501745393,316.88734540180303,1003.1766340046,293.984441255743,48.608071867842206,316.803606888978,3427,0,-257,14864,4656,-826,1221,-376,681278,500,6.450938000000001
982.884880828788,1143.39747568616,351.70616791991097,-249.26468214896198,-98.47207750074449,-0.9240939667215571,-138.289821111946,264.41423677268904,3427,0,-257,14864,4656,-826,1221,-376,681279,500,6.451064000000001
769.794321802357,630.574529067497,-145.439675192931,-959.386357566749,-904.135785933759,-463.074186790851,-12.7995013298932,283.224708349328,3427,0,-257,14864,4656,-826,1221,-376,681280,500,6.451189
382.44776225625503,276.174067922868,-160.367074220208,-815.918181673915,-886.818579377868,-684.910740884836,42.555726146034395,151.733478431473,3427,0,-257,14864,4656,-826,1221,-376,681281,500,6.451313000000001
268.234810161899,137.856420490774,-327.14495177334203,-1150.21406921843,-1152.9005252442698,-831.406690208125,-140.287343113741,25.853320340858804,3427,0,-257,14864,4656,-826,1221,-376,681282,500,6.511103
172.33129286053003,-30.539229645743,-499.777272110689,-1257.69103661741,-1320.21481312023,-810.084977488092,-209.54201307258302,-25.9124042176409,3427,0,-257,14864,4656,-826,1221,-376,681283,500,6.5111680000000005
73.64365592956891,-163.04341273976002,-610.609406294418,-1233.59574636011,-1394.95700360561,-694.591848953685,-313.69848817726603,-138.64294019865298,3427,0,-257,14864,4656,-826,1221,-376,681284,500,6.511228
-81.4517604318098,-280.967808648478,-655.440024701995,-1121.3095388317302,-1125.8686336044,-397.664412905287,-398.65453545126405,-231.079098438844,3427,0,-257,14864,4656,-826,1221,-376,681285,500,6.511279
-91.50771261085171,-170.834410729702,-358.83011823717993,-535.3708292526719,-437.754253488645,-12.0109496752848,-405.02181673271105,-211.05228115024502,3427,0,-790,14339,4970,-832,1188,-78,681286,500,6.5113330000000005
-10.0098400933784,24.3862890300807,-69.8851319859968,-69.02154584150409,-59.320874222525205,223.740054951631,-275.150454498595,-151.517424115911,3427,0,-790,14339,4970,-832,1188,-78,681287,500,6.5113900000000005
9.85217089892831,-63.0683007036569,-214.837837494793,-67.6040240152506,-232.171431274124,110.71455927426001,-61.4279284446384,-78.8076357528334,3427,0,-790,14339,4970,-832,1188,-78,681288,500,6.511447
-342.195346475812,-463.45212285046,-694.851959239342,-495.499944466108,-474.404084418638,-152.94701807003,-32.2274911409477,-279.28922332718497,3427,0,-790,14339,4970,-832,1188,-78,681289,500,6.512732000000001
-418.54039678085195,-536.8440452319339,-846.870693732984,-740.152352111705,-785.1428989527341,-606.096813579206,-260.770725837443,-451.418871612055,3427,0,-790,14339,4970,-832,1188,-78,681290,500,6.512803000000001
-384.603552616085,-436.38654813764197,-594.490577409044,-517.641033251479,-747.140499967471,-848.8522418483631,-513.280871629016,-540.887836341397,3427,0,-790,14339,4970,-832,1188,-78,681291,500,6.512874
-106.613832387055,-283.50412738265,-380.01993669685896,-402.23144819284795,-523.752802372532,-637.382069900807,-332.325438931526,-171.10127344308398,3427,0,-790,14339,4970,-832,1188,-78,681292,500,6.512959
232.50209164648498,12.5672036161413,159.723613252165,518.6746813535859,-131.21607717001498,-445.42138159286696,-297.70991883793596,140.411873039673,3427,0,-790,14339,4970,-832,1188,-78,681293,500,6.5130300000000005
-107.37964992327,-176.032444698387,262.428534873878,1074.28667216137,459.14810690900805,16.446090465528,-305.252335351892,-88.5936017088825,3427,0,-790,14339,4970,-832,1188,-78,681294,500,6.513109
-516.550019726536,-499.406974087353,215.77240420982702,1597.0807281344298,961.628464455251,342.36443447793096,-355.41967791022006,-299.829626257764,3427,0,-790,14339,4970,-832,1188,-78,681295,500,6.513213
-669.1726676122339,-650.780545039801,202.48406923236303,1670.07272637275,1249.10949006877,486.31875160662497,-391.034147804952,-376.247754246695,3427,0,-1322,14106,5211,45,379,46,681296,500,6.513297000000001
-663.844971840095,-613.413957480574,185.37874772830398,1517.50103419647,1433.5768701583402,616.531357888191,-348.676319658407,-379.153346741572,3427,0,-1322,14106,5211,45,379,46,681297,500,6.513383
-153.734653595078,-176.01018137158798,200.27964269160302,668.171461870952,1147.62991443937,675.531464720843,-210.44038035644903,-125.621239733417,3427,0,-1322,14106,5211,45,379,46,681298,500,6.513528
469.261081023811,433.818862093845,247.78022777882902,-431.93331634649104,143.748991816072,73.9207566485275,-160.378377653949,126.73722356301701,3427,0,-1322,14106,5211,45,379,46,681299,500,6.5136210000000005
943.346572214243,721.9916232979159,89.9661794297863,-1086.00360137681,-346.753156063845,-449.62405630608595,-80.1291138919187,345.13317170809,3427,0,-1322,14106,5211,45,379,46,681300,500,6.513711000000001
891.7454533489071,555.376597542665,-84.7618235251866,-1267.78385268108,-1146.13396574749,-1274.67464027536,-83.35978649155,350.114078000654,3427,0,-1322,14106,5211,45,379,46,681301,500,6.513819000000001
585.360941634455,270.577142857364,-223.51715487369802,-1269.36374253855,-1420.72671000831,-862.095473895315,50.590141906286604,257.63191261503397,3427,0,-1322,14106,5211,45,379,46,681302,500,6.513916
-3.41938712538104,-123.963477128418,-233.33144115645,-891.2630248328501,-916.712552445941,-237.998013520439,78.5219829342677,40.088763482403,3427,0,-1322,14106,5211,45,379,46,681303,500,6.51402
-123.74872226937401,18.0819799895398,341.308798001031,160.879711962916,113.69153453398,49.3851454834221,27.5959793785587,-38.5960773099214,3427,0,-1322,14106,5211,45,379,46,681304,500,6.5141290000000005
119.153094899346,296.4836217392,765.6601759393229,1073.6713851578802,440.56999089749297,143.37203700299102,-17.726420392515102,-28.847128782188502,3427,0,-1322,14106,5211,45,379,46,681305,500,6.514281
107.599113352248,189.798429565039,455.27252071409004,716.939363677899,1003.8357615472901,465.735002477304,-172.787983544928,-144.430822909926,3427,0,-1358,14132,5263,1167,115,-148,681306,500,6.514387
44.5103880671377,-6.98660043056589,46.3872043065494,153.959811234468,121.083572780306,548.536215754983,-83.4322940356797,-195.95944619039102,3427,0,-1358,14132,5263,1167,115,-148,681307,500,6.514489
444.299777491105,305.49666325259,225.935222434578,203.196093082486,-183.220585759002,250.67082313913897,0.8358253289479759,78.1181321982294,3427,0,-1358,14132,5263,1167,115,-148,681308,500,6.514606000000001
396.86214188436895,180.7923275457,189.576762377168,417.765177781257,125.449010217184,186.070677755168,-106.747699297674,87.41474149667191,3427,0,-1358,14132,5263,1167,115,-148,681309,500,6.5147260000000005
319.195194899716,107.325498943799,78.1401857342571,327.539502632659,-134.188814082183,-79.4605469317758,-116.590162668494,14.110885729663998,3427,0,-1358,14132,5263,1167,115,-148,681310,500,6.5148470000000005
217.641959581553,-9.94668189808726,-268.419470524299,-401.544904014008,-515.791093383508,-375.460120242031,-145.186320347653,-16.540774162160197,3427,0,-1358,14132,5263,1167,115,-148,681311,500,6.514967
45.7986327006656,-191.341252473299,-666.290611474426,-1412.67653865227,-797.2081119143111,-106.281924759562,-69.076318944979,-25.940340691944606,3427,0,-1358,14132,5263,1167,115,-148,681312,500,6.515085
-517.424068204564,-423.13164552534,-452.98183693224604,-931.437706269411,-224.43275278698997,506.356441661075,-158.875938337878,-309.495482531493,3427,0,-1358,14132,5263,1167,115,-148,681313,500,6.515213
-548.895007470914,-326.062100798939,-81.3321564998478,-28.861058122623895,574.729068396118,804.256821664108,-207.798071620462,-347.023403088795,3427,0,-1358,14132,5263,1167,115,-148,681314,500,6.573487
-413.00203406400396,-231.185697852168,12.399391660932501,285.078914565383,926.640185882803,1273.3048665724302,-161.695225016272,-379.100335790659,3427,0,-1358,14132,5263,1167,115,-148,681315,500,6.57352
661.294114859833,514.412534338771,234.14696652256,-96.56013490620529,-532.510390988959,200.11381940200198,64.7000637614401,199.39839102409303,3427,0,-924,14489,5208,1354,474,-144,681316,500,6.573546
984.78895820849,545.119826429407,27.792802821262697,-552.9292567982341,-1197.3026150053802,-397.59123650321294,39.829059591749704,442.72883191483595,3427,0,-924,14489,5208,1354,474,-144,681317,500,6.573572
143.509765048278,-139.081309751957,-187.91049188445302,-449.067204543651,-800.3750014004179,101.329264342901,137.49786998465402,126.505319253542,3427,0,-924,14489,5208,1354,474,-144,681318,500,6.573599000000001
-304.676993205503,-324.815889595775,-146.513701952412,-171.585200535395,-552.4659608055371,50.4361430130666,53.0797921986086,-177.824242274277,3427,0,-924,14489,5208,1354,474,-144,681319,500,6.573627
-259.325497345068,-129.600972892717,9.64644852140918,134.238269268681,-770.716856971179,-714.326987569977,-91.89843913790541,-276.615918357042,3427,0,-924,14489,5208,1354,474,-144,681320,500,6.573657000000001
-225.461378305481,65.16871110536161,-32.90564344206361,10.913995033159198,-611.5696901432821,-858.357903702825,-177.425318123656,-414.90664658648905,3427,0,-924,14489,5208,1354,474,-144,681321,500,6.5736870000000005
-521.935067999701,-199.619699900621,146.68035895098,654.313979799132,-330.167647395399,-615.976701863809,-324.483207295998,-639.8975657295671,3427,0,-924,14489,5208,1354,474,-144,681322,500,6.5737190000000005
-1368.2026473308501,-1139.8223569869301,-510.728906552657,-91.653700329276,404.85653748424403,454.17374143278,-182.499258435797,-767.647836741526,3427,0,-924,14489,5208,1354,474,-144,681323,500,6.573753000000001
-1623.5006808610901,-1433.2353378433,-647.135443086387,-433.784997821407,635.8003384466571,1256.5434675353501,63.0558850981761,-682.104710980086,3427,0,-924,14489,5208,1354,474,-144,681324,500,6.574363000000001
-1338.92391343339,-1155.4988747303098,-419.095778351184,-88.92310732943591,586.579998046334,1283.6594091560698,2.44948990124976,-817.2210003932711,3427,0,-924,14489,5208,1354,474,-144,681325,500,6.574404
195.265695902664,-17.6198868368519,-90.5377781275893,-88.22553079185309,64.92807103038649,442.845869391167,-138.88735424680598,-275.864196397713,3427,0,-493,14965,5011,1667,1050,-63,681326,500,6.574442
1349.55905360714,949.0382463394199,222.98959012934898,-54.7395769995637,-395.556059815717,-346.74151410046,-100.573175773141,350.16771885647904,3427,0,-493,14965,5011,1667,1050,-63,681327,500,6.574484
1225.33958458871,1198.02783088502,567.3740549404171,235.71064397663602,-495.50680521235296,-735.912777294812,-9.07121330220252,499.319875403773,3427,0,-493,14965,5011,1667,1050,-63,681328,500,6.574527000000001
981.3862282155611,1043.3813256314,777.2548850659509,776.9235735838299,-294.07856715514197,-682.9469036598459,-165.16063277074102,234.18515070294998,3427,0,-493,14965,5011,1667,1050,-63,681329,500,6.574569
1127.00811988011,931.3686826352499,529.348470981931,218.226543229859,-441.97164402398596,-601.7970232587539,53.360499490634496,443.387931054807,3427,0,-493,14965,5011,1667,1050,-63,681330,500,6.574612
519.495108988747,393.407394497423,183.15498104970902,6.35908985801507,-681.412668945035,-561.386769979086,173.751041806827,108.36910644639299,3427,0,-493,14965,5011,1667,1050,-63,681331,500,6.574657
235.55955049544,356.040539681679,623.355831340421,1249.99421132839,-261.964318717859,-585.058890555869,-98.9046825992991,-138.001879423042,3427,0,-493,14965,5011,1667,1050,-63,681332,500,6.574703
-20.989601110573897,72.6772701940499,298.812917497824,571.050885030883,143.312594674819,-117.501782856241,-193.252304601192,-162.666631956119,3427,0,-493,14965,5011,1667,1050,-63,681333,500,6.574753
-210.734426427691,151.592147299554,525.865315843024,691.5857193894341,383.529707437498,217.021639475657,-295.357864880119,-393.71621980343497,3427,0,-493,14965,5011,1667,1050,-63,681334,500,6.574802
-586.913277161715,-314.063612891827,27.6081477173138,-17.2024471443438,65.227814112528,58.4359081526636,-291.833402014046,-623.852547169197,3427,0,-493,14965,5011,1667,1050,-63,681335,500,6.574852000000001
-1082.58973146926,-583.0927384407261,273.925530518987,606.531328160228,213.984026407299,67.7839038397069,-243.62292030052,-843.1405272360429,3427,0,-441,15190,4867,698,1304,-291,681336,500,6.574908000000001
-1450.7967468660502,-1267.1065832091301,-490.502529071993,-124.073978863918,20.0192282954231,271.786774887354,-31.0430424939259,-742.651936286944,3427,0,-441,15190,4867,698,1304,-291,681337,500,6.5749580000000005
-606.947010513279,-746.058351336629,-226.775364964269,181.982906059187,90.8248610582959,260.569727263763,80.5025111776195,-216.07819354487597,3427,0,-441,15190,4867,698,1304,-291,681338,500,6.575019
403.275527263468,169.985887450166,-4.09504138072953,105.593334123987,-115.518743458524,-173.853381509369,-135.296834448702,62.447919599013396,3427,0,-441,15190,4867,698,1304,-291,681339,500,6.575077
993.4307868373869,498.211215019575,-60.4568157797912,-108.970919939078,-298.412361249677,-590.919714535587,-201.321558282943,311.655994138098,3427,0,-441,15190,4867,698,1304,-291,681340,500,6.575133
910.3673094071271,455.62579924717994,-205.54954752128103,-203.58939701490502,-292.186027730233,-564.512504036189,-154.2205491247,209.928577178624,3427,0,-441,15190,4867,698,1304,-291,681341,500,6.57519
725.9495320322169,414.548053964274,-136.16061871429,-109.20026109553899,27.004093444527804,-151.845612607198,-161.363977876608,82.63212899304929,3427,0,-441,15190,4867,698,1304,-291,681342,500,6.575245000000001
661.068312292686,517.0664811659369,210.616093365476,-209.766080578265,505.181554620765,507.091732731205,-165.430631303403,74.1841557654552,3427,0,-441,15190,4867,698,1304,-291,681343,500,6.575309000000001
-43.0012210038258,524.872240461293,918.752686511958,471.023007203854,1303.31657977798,1206.4740573098,-145.590100226051,-120.985531570972,3427,0,-441,15190,4867,698,1304,-291,681344,500,6.637164
-1635.62966045414,-37.8504333037417,1339.76119114831,1536.81556751116,1922.4966353586603,1718.2009552781199,-92.20424896857,-947.723353816546,3427,0,-441,15190,4867,698,1304,-291,681345,500,6.637235
-2825.71314817815,-740.6188891474159,1090.6433929952302,1785.29766457246,1980.3523780253602,1839.88402525178,56.9119355621515,-1812.7934055236399,3427,0,-780,15159,4787,-557,1389,-612,681346,500,6.6372860000000005
-2334.31171293571,-709.147455578553,804.843895270955,1470.1338186057098,1533.5785718279901,1239.5093037557099,-31.354117739189,-1782.55530582857,3427,0,-780,15159,4787,-557,1389,-612,681347,500,6.6373370000000005
-697.2032957327319,-497.179387778393,194.64556399907502,980.967423626164,1243.37326824595,708.195597954094,-308.322229306388,-754.903616794734,3427,0,-780,15159,4787,-557,1389,-612,681348,500,6.637392
1080.47544765015,-219.270341620315,-665.3206398999321,-28.8143601901829,-88.6778680333518,-768.519874731719,-591.756978292658,518.318586540292,3427,0,-780,15159,4787,-557,1389,-612,681349,500,6.637448
1439.69893808564,-18.3603973464342,-703.62467044685,-131.613383693941,-720.393663381547,-1557.97298632551,-556.611457415624,728.2121005044321,3427,0,-780,15159,4787,-557,1389,-612,681350,500,6.6375210000000004
886.0959269732989,114.454084541765,-396.592803521664,-247.035955453233,-997.374988473195,-1685.6088641032097,-468.220691701805,239.83353626518502,3427,0,-780,15159,4787,-557,1389,-612,681351,500,6.637580000000001
574.889318564703,128.343451187597,-711.48972365621,-1480.95951564203,-1525.2573379576502,-1236.2056220842098,-151.359974715975,92.43684522167308,3427,0,-780,15159,4787,-557,1389,-612,681352,500,6.6376420000000005
323.196241575672,-0.051383258542046,-695.4838271525219,-1403.5708050456,-1627.12681645559,-878.821876921225,25.4065388788003,-16.354195841471697,3427,0,-780,15159,4787,-557,1389,-612,681353,500,6.6377120000000005
-164.85926920548098,-147.71151531802,-387.489118241123,-567.871289011207,-1054.89410041075,-424.50447920931,-28.5970178630669,-391.10378098627604,3427,0,-780,15159,4787,-557,1389,-612,681354,500,6.637779
-288.071153495723,-166.322374708485,-107.17530221142799,-305.045957976836,-580.1968525073901,252.717780639767,-6.4003484786953795,-423.28448011784303,3427,0,-780,15159,4787,-557,1389,-612,681355,500,6.637849
336.570368121465,-12.776193465455401,-46.994480347027995,-341.627167504688,-314.12901967996703,398.762549753417,-47.086631730780894,150.144778109738,3427,0,-1171,15017,4684,-689,1418,-755,681356,500,6.637921
1160.0974975251,610.882513907156,124.729987197672,-365.813199286262,-27.5215608700528,637.373789712787,92.6050920877024,770.069560681586,3427,0,-1171,15017,4684,-689,1418,-755,681357,500,6.637995
1554.92786778382,1152.19814342714,357.904858128284,-278.38326532352903,112.40840958757299,691.124719773594,210.67381143418598,962.861689825426,3427,0,-1171,15017,4684,-689,1418,-755,681358,500,6.638072
1017.6013840588,606.506509428145,59.480820110649795,-405.68966970371497,-196.59927670902098,163.829476338928,130.498080811114,664.285320279654,3427,0,-1171,15017,4684,-689,1418,-755,681359,500,6.638151000000001
596.2571079204499,367.71695919858803,198.054493611911,49.951195464062,-534.534043337713,-399.618513646419,48.3372121799621,313.761667471379,3427,0,-1171,15017,4684,-689,1418,-755,681360,500,6.638244
245.738367634563,259.094468695228,485.93934776145,841.7488576558529,-690.3471849409401,-986.8207205790679,-85.4680950595066,-2.58462830423377,3427,0,-1171,15017,4684,-689,1418,-755,681361,500,6.639410000000001
-223.637335330859,-457.348197207903,-687.615710084676,-928.3147799351719,-405.945366469648,-353.287127038871,-75.49339398788291,-181.81834400713,3427,0,-1171,15017,4684,-689,1418,-755,681362,500,6.639507
-72.0138359020639,-320.141772231669,-433.381431762828,-392.608802639908,208.81956769755902,389.610930838098,-218.677220539306,-186.888581000851,3427,0,-1171,15017,4684,-689,1418,-755,681363,500,6.639604
216.843520140596,-161.780032934388,-362.17306090902997,-464.79372425420996,-139.090942081821,485.231411114859,-153.365187271382,3.8798472710186602,3427,0,-1171,15017,4684,-689,1418,-755,681364,500,6.639699
254.642345282162,-141.532780714333,-384.258123033564,-704.002099734935,-972.568265256443,-282.933007537271,-134.57507131947202,15.379002808244,3427,0,-1171,15017,4684,-689,1418,-755,681365,500,6.639795
-30.014639323751897,-329.225792468293,-425.927241220721,-821.939856332639,-639.8721907328579,-241.52786830317902,-100.114382957108,-116.36550869012699,3427,0,-1227,14897,4609,394,1551,-512,681366,500,6.639903
-499.927492859279,-478.787144535338,60.6199815494474,86.1798334737541,222.336088807439,115.381003240414,-78.998807611817,-230.56031206843898,3427,0,-1227,14897,4609,394,1551,-512,681367,500,6.640015
-863.5841695763229,-688.074286244111,147.565382777248,480.120084988186,328.458829869836,67.3485819724156,-6.469014080998019,-281.70775608986196,3427,0,-1227,14897,4609,394,1551,-512,681368,500,6.640124
-960.31666757114,-866.895996514941,-26.942289441241897,668.385295104323,92.38846880765051,-393.48511329101194,-192.22499252500702,-542.879639127175,3427,0,-1227,14897,4609,394,1551,-512,681369,500,6.640284
-1023.0098848830401,-758.24542044499,-235.044549432816,-183.197855538194,-125.831317240256,-355.65040620364,9.91981497826055,-508.60734905162803,3427,0,-1227,14897,4609,394,1551,-512,681370,500,6.640391
-1281.64182909153,-1064.32035871223,-398.80149983626296,-578.9410643229199,-620.56378070917,-549.817102641508,131.03392822318702,-452.88067361654197,3427,0,-1227,14897,4609,394,1551,-512,681371,500,6.640501
-867.208749331301,-1279.0816588877901,-581.366508252686,-405.271701477584,-464.152430473798,-563.656924991636,19.0875657850993,-313.363702083589,3427,0,-1227,14897,4609,394,1551,-512,681372,500,6.640642000000001
26.037422863126302,-783.563525845064,-485.367403023643,-307.292416413897,-441.84436347009597,-700.526343447622,-179.90499776898702,-47.3834302210016,3427,0,-1227,14897,4609,394,1551,-512,681373,500,6.6407680000000004
638.822629826784,-247.49652086070301,-180.867611029418,70.70557319821091,-178.31719544559,-371.57956511777604,-156.787591225759,183.477304512053,3427,0,-1227,14897,4609,394,1551,-512,681374,500,6.640914
644.70141359861,282.879629119067,223.186349637574,518.511387072853,347.256343714165,160.966933512071,-64.3904801910394,197.79244252806498,3427,0,-1227,14897,4609,394,1551,-512,681375,500,6.641044000000001
580.91925179286,592.965986522031,455.236424147733,630.780973333021,694.334882585943,388.732885727077,-26.806981059955397,103.602711388143,3427,0,-1046,14733,4778,1508,1536,-479,681376,500,6.686724000000001
405.617470386409,440.045995478868,386.246954320581,610.449301074375,573.966159117379,561.964479340881,10.3082335920772,27.478827371262003,3427,0,-1046,14733,4778,1508,1536,-479,681377,500,6.686750000000001
429.250677210657,646.767039366998,408.534771202947,307.129888511088,457.065554058237,748.910680707078,272.53996096749296,198.753564375802,3427,0,-1046,14733,4778,1508,1536,-479,681378,500,6.68677
381.022184285801,663.06316635746,338.109830183326,-166.31937243562402,137.888864517998,547.919393055025,305.905886714288,48.8890992419329,3427,0,-1046,14733,4778,1508,1536,-479,681379,500,6.68679
143.57547278259898,319.393623834942,336.125825863448,70.71635535941459,67.1541727890726,415.00380804378096,476.97387622896304,-133.88692244736,3427,0,-1046,14733,4778,1508,1536,-479,681380,500,6.686813000000001
-578.8411016617611,-643.075681161485,-60.3638623318402,387.27018930509803,-206.417818352551,-106.810519565828,502.787421820802,-92.76979619078341,3427,0,-1046,14733,4778,1508,1536,-479,681381,500,6.686835
-1585.3687077322102,-1698.8377144024698,-913.9919084158031,-354.509041511046,-235.085046252818,-136.162400065223,343.422079134558,-213.149391168728,3427,0,-1046,14733,4778,1508,1536,-479,681382,500,6.686859
-1513.96876460931,-1537.92218309245,-419.341647006455,30.953409439564,-128.235566006828,-225.760920568078,154.233508973091,-326.054866906838,3427,0,-1046,14733,4778,1508,1536,-479,681383,500,6.686883000000001
-1172.10832148706,-1675.09219264728,-448.59385165187996,80.683547281893,-273.139434905723,-340.06909667717997,-78.310887120897,-469.337488035904,3427,0,-1046,14733,4778,1508,1536,-479,681384,500,6.686909
89.71305203397058,-641.8379055680709,-203.189187602839,27.4336317120178,-34.6244825571484,107.53643087839001,-65.4741449905559,-141.76416398049298,3427,0,-1046,14733,4778,1508,1536,-479,681385,500,6.686936
1973.7586127279199,2096.72578034655,1009.05524617224,469.73326269083196,423.51246176200203,531.660687002179,-54.7826297422871,411.27943391108397,3427,0,-896,14631,4892,1394,1794,-636,681386,500,6.686964000000001
2105.0805815352696,2500.4858665299803,1235.23168134305,637.18586300622,339.288665960426,273.726479251345,-105.834748374589,507.233520227717,3427,0,-896,14631,4892,1394,1794,-636,681387,500,6.686992
484.69284030419703,133.509873012896,54.371711477287995,685.26028561077,240.20339081934102,109.433481435408,-54.88306448253571,85.2213836816372,3427,0,-896,14631,4892,1394,1794,-636,681388,500,6.687022000000001
-223.09463856095698,-613.918928863946,-93.1540822075913,1439.2610839624801,406.68256200233003,-26.974744158505896,-310.639357230742,-278.85552967584204,3427,0,-896,14631,4892,1394,1794,-636,681389,500,6.687053000000001
-481.80503694698604,-747.792147500324,-763.5319805479379,653.420316998439,613.797905541753,177.189011887938,-265.065739335376,-272.676343353116,3427,0,-896,14631,4892,1394,1794,-636,681390,500,6.687086000000001
-1620.7062455113,-1529.8743103551699,-1336.0711970447999,-373.056705168274,572.8474174662259,296.315314011998,-197.194673379476,-564.687507894472,3427,0,-896,14631,4892,1394,1794,-636,681391,500,6.68712
-2653.89681402693,-2709.5659228093,-2496.66224887792,-2649.75214733268,4.70656368724303,434.811034596409,-147.05711987795098,-950.4170697665539,3427,0,-896,14631,4892,1394,1794,-636,681392,500,6.6871540000000005
-829.979110382934,-947.836658489658,-1105.6278425497,-1643.39359510326,-763.038857242238,-203.561911574681,-127.352294447715,-394.18968020367896,3427,0,-896,14631,4892,1394,1794,-636,681393,500,6.687189
1784.0788461170498,1863.18811347068,1039.2260580064,-408.057453304005,-1144.53703230683,-926.373385922052,-354.33762048656405,252.494239143212,3427,0,-896,14631,4892,1394,1794,-636,681394,500,6.687226000000001
2867.84726818773,2980.47366297885,1920.04050946643,308.038671905146,-956.77833588983,-1023.00573412969,-508.912252604321,649.612231075647,3427,0,-896,14631,4892,1394,1794,-636,681395,500,6.687269000000001
2081.65121886102,2259.1716474721898,1671.81561303779,930.711795263167,-37.942046851676395,-460.531183104787,-498.562228372786,445.49782982666494,3427,0,-1137,14774,5009,637,1480,-22,681396,500,6.687309000000001
1129.2982899443,1117.49010131555,712.121342438855,396.80187296716,249.323785421031,-122.69308365799999,-296.528862004576,302.54592633957503,3427,0,-1137,14774,5009,637,1480,-22,681397,500,6.687347000000001
228.54372465165198,391.495330437203,449.07481484115095,458.835300904524,73.88172967312859,-522.453788112325,-362.337076251453,-51.2943920035614,3427,0,-1137,14774,5009,637,1480,-22,681398,500,6.687387
-392.659845863527,-213.15537417843004,-94.9158876613947,116.61507583965401,-174.897052116052,-929.1268093535331,-498.859006018378,-469.282495241961,3427,0,-1137,14774,5009,637,1480,-22,681399,500,6.687431
-251.83710394107,-229.89911684323997,-433.36034978192805,-321.704512145749,-419.56852017896006,-1067.34215365001,-564.094263104838,-474.596450759331,3427,0,-1137,14774,5009,637,1480,-22,681400,500,6.687476
-82.9506633890851,-160.962567188079,-514.156073872698,-872.793627981882,-952.335773201543,-880.8220743211571,-385.02490480698197,-303.932335792342,3427,0,-1137,14774,5009,637,1480,-22,681401,500,6.6875230000000006
-259.01245929391,-300.573542673723,-562.1227828837,-999.5931606689411,-1056.07039131582,-654.8593251617859,-303.57627095654595,-344.074239332112,3427,0,-1137,14774,5009,637,1480,-22,681402,500,6.73291
-233.122462580417,-292.34858558909,-567.731095199822,-1012.4766975555699,-887.1754238284481,-448.586354747997,-346.35738221899396,-357.86395588563795,3427,0,-1137,14774,5009,637,1480,-22,681403,500,6.732976000000001
94.5522391573468,-192.790213259286,-603.059487170773,-772.748070824484,-859.4792608096901,-515.170674293244,-366.72824407683197,-174.705665888148,3427,0,-1137,14774,5009,637,1480,-22,681404,500,6.733027000000001
153.794776723458,-130.242411029991,-452.09249099390604,-126.55934982371402,7.620362445391951,-92.9738662036252,-289.443195379165,-93.2023985200794,3427,0,-1137,14774,5009,637,1480,-22,681405,500,6.73308
93.041916657472,125.30993932601999,221.705027701682,471.81499339963204,118.58178865964899,-253.412318875024,-139.574688798108,-60.41309462091889,3427,0,-1617,15121,5183,1328,290,731,681406,500,6.733135000000001
37.019062601146295,137.179480850464,441.881249716389,402.850902736973,105.922103434539,72.1171357239946,-151.5653891525,-51.880798408878,3427,0,-1617,15121,5183,1328,290,731,681407,500,6.733194
-424.747868485487,-615.2954731072531,-327.499441751046,-509.952118548361,-61.608064969128506,624.127742977173,-129.613032053749,-172.640032976982,3427,0,-1617,15121,5183,1328,290,731,681408,500,6.733253
-1058.61225529667,-1152.6440324304901,-502.936580958311,-137.353478689096,422.86633785418195,582.910147751914,-288.791550067486,-415.10901302052696,3427,0,-1617,15121,5183,1328,290,731,681409,500,6.733321
-1399.31434102482,-1292.69476878585,-453.563994142809,84.5169000504538,368.62611344718596,380.203758483636,-237.28422608244,-618.758931311429,3427,0,-1617,15121,5183,1328,290,731,681410,500,6.733386
-711.154486928077,-223.544131729635,414.056764867855,1036.9980388128301,211.699156548828,-61.466530832462,-282.80419657792703,-538.6112329204329,3427,0,-1617,15121,5183,1328,290,731,681411,500,6.733456
530.90004130383,746.801729135681,190.624377570814,-347.822217615205,-345.743672483426,-340.606995210226,-149.864042698988,-47.038568301359206,3427,0,-1617,15121,5183,1328,290,731,681412,500,6.733525
1392.71829705706,1223.03383665706,332.69208833226,-419.490286706045,-713.362373379176,-822.9474657946271,-56.3405014002929,400.63490963075304,3427,0,-1617,15121,5183,1328,290,731,681413,500,6.733595
863.406096100342,867.4677008389259,448.12897327251295,126.86951943402501,-64.7286172228341,-347.223331478832,-108.07586591795601,202.729597841157,3427,0,-1617,15121,5183,1328,290,731,681414,500,6.733668000000001
254.214054066193,404.01445085462194,263.982837832533,104.934854628693,-23.4213530978595,75.8675900948583,27.6633723029518,94.73741212720051,3427,0,-1617,15121,5183,1328,290,731,681415,500,6.733742
-20.4379515978799,152.03835365548701,273.918962552329,337.669036848762,631.506192721892,829.558292272675,29.538182198302803,-23.834858128218897,3427,0,-1743,15361,5263,1572,-506,795,681416,500,6.733822000000001
-43.2227793545753,279.832765084459,653.393876323127,1024.60691650445,1384.56119466567,1000.41288844036,139.706765424111,-79.3132141953101,3427,0,-1743,15361,5263,1572,-506,795,681417,500,6.733903000000001
788.900421900675,839.293701768271,760.786590737174,1035.1287390666,680.269529405894,391.98504374141294,156.075697709224,272.346573656891,3427,0,-1743,15361,5263,1572,-506,795,681418,500,6.733987000000001
783.8043596242791,705.056581988814,369.935216950485,145.144427779713,-635.351431290474,-114.45434215286501,103.66560121689699,343.342745232745,3427,0,-1743,15361,5263,1572,-506,795,681419,500,6.736477000000001
286.83677768841204,173.97587318101398,-207.84281839092702,-754.600281205931,-621.7793863170659,-126.635488080559,63.8308812113828,138.171139664715,3427,0,-1743,15361,5263,1572,-506,795,681420,500,6.73658
340.636948050058,313.342896707472,120.942874318804,-67.9916782973451,-475.19043169883696,-389.083612282528,-16.2524914353271,141.261740381364,3427,0,-1743,15361,5263,1572,-506,795,681421,500,6.738003000000001
341.083354682691,328.726443836116,156.437836656696,-19.9897973139887,-462.58166691300005,-741.651216030121,35.8393495780765,179.089324048138,3427,0,-1743,15361,5263,1572,-506,795,681422,500,6.738125
120.89913131069599,50.749834942747796,-256.696165273548,-488.34089024539594,-390.487433501345,-271.933732873178,93.24174842541109,66.3818092676811,3427,0,-1743,15361,5263,1572,-506,795,681423,500,6.738720000000001
130.033938650391,107.160069393809,57.7925938048866,-39.558799851831296,86.170301282662,213.79108708998,74.3989408722846,44.516327099409,3427,0,-1743,15361,5263,1572,-506,795,681424,500,6.796115
29.737479905626998,-184.94953920075199,52.3404880708549,170.090154558915,369.054190190334,480.780169223726,107.463326734724,77.57819616550108,3427,0,-1743,15361,5263,1572,-506,795,681425,500,6.7961800000000006
-84.213855048205,-526.072630996583,-217.382096475107,172.40264297299998,341.323395543703,529.767080153048,54.6484143139096,31.718194781220497,3427,0,-1387,15591,5223,191,-1311,483,681426,500,6.796231000000001
-68.5456117438152,-463.42919415014296,-226.347617876017,161.760788138752,270.200671186438,231.30401585338402,69.0719020543038,27.173238172312303,3427,0,-1387,15591,5223,191,-1311,483,681427,500,6.796282000000001
44.3167938349652,172.835493112332,272.612049427233,603.400037929008,411.623472049047,265.48905014840403,136.974861080176,22.683972131926602,3427,0,-1387,15591,5223,191,-1311,483,681428,500,6.7963450000000005
420.104565146321,1064.49060164404,828.929862488178,639.020750901429,1.7223684229247702,56.76267990749329,47.0125739001087,108.680788761703,3427,0,-1387,15591,5223,191,-1311,483,681429,500,6.796405
128.354314611672,515.9619653305269,232.47849533218,-326.53093473301897,-524.297075570532,-358.046097516315,55.5590110329213,56.462441872456104,3427,0,-1387,15591,5223,191,-1311,483,681430,500,6.796463
150.291193817946,301.205542546115,429.519695075112,191.726070550329,-677.0347344899781,-795.485664502892,12.3217355405795,42.6563320657006,3427,0,-1387,15591,5223,191,-1311,483,681431,500,6.796522
33.8175000715128,-261.673293077271,-224.575894736918,-431.354599952552,-709.582663691544,-643.108542007918,128.623320898041,103.551928021363,3427,0,-1387,15591,5223,191,-1311,483,681432,500,6.796583
-37.478180978912896,-378.27687478764,-127.172225634684,359.513560287684,-658.2216143707051,-657.5709304687921,-41.7376759407925,-20.160053809173398,3427,0,-1387,15591,5223,191,-1311,483,681433,500,6.796664000000001
63.042296376166604,50.16972399852239,491.730615685927,880.129867657379,366.395224258158,122.176359843696,-147.363581390935,-75.7453504037112,3427,0,-1387,15591,5223,191,-1311,483,681434,500,6.796734000000001
166.280003444146,45.953088154084995,-37.935313771828106,-252.427304560144,686.555042118736,1014.41230153071,-71.7965910804924,12.4659283373039,3427,0,-1387,15591,5223,191,-1311,483,681435,500,6.796807
41.6478208942572,-116.21835233981301,-45.2310604013037,135.68796201614902,975.858675832307,1385.6745182180898,-60.7702133090934,-15.699417426367303,3427,0,-825,15592,4879,-1008,-459,83,681436,500,6.796880000000001
24.9012412321172,-110.404436115525,-276.026837412268,59.8404086086666,632.469856761338,906.568030931987,83.2828545606462,31.018547600368,3427,0,-825,15592,4879,-1008,-459,83,681437,500,6.796957000000001
469.46108669089205,382.276885252446,-430.39242341089994,-485.104311659932,-840.520100606693,-677.599365077214,180.815162997285,289.813593747094,3427,0,-825,15592,4879,-1008,-459,83,681438,500,6.797038000000001
327.109355241468,273.536669615656,-319.470669836504,-400.14590880804496,-914.7690596548199,-641.0321159798771,62.4732149500051,135.942015558365,3427,0,-825,15592,4879,-1008,-459,83,681439,500,6.797117
523.4024429826529,863.7535396442979,1001.4551603788301,941.850036638469,-131.44562974056998,-418.07206291426,-46.443380244833,110.19240297691401,3427,0,-825,15592,4879,-1008,-459,83,681440,500,6.797201
309.787748365838,545.238122519804,685.04602909612,376.94499734637805,-313.88296985879396,-524.822420238866,-47.667170083092095,46.997665388742504,3427,0,-825,15592,4879,-1008,-459,83,681441,500,6.797286000000001
-248.982714648446,-441.09360537631403,-727.515847261646,-1128.9543454599,-620.235527681536,-409.607434000063,-23.0364041128196,-147.578006341821,3427,0,-825,15592,4879,-1008,-459,83,681442,500,6.797384
-311.842412288097,-642.950031082379,-853.395357269677,-643.417624929163,-94.94742457129179,-133.834519172553,-83.18075283797221,-171.774940126925,3427,0,-825,15592,4879,-1008,-459,83,681443,500,6.797473
-853.884347873507,-1639.24500111339,-1575.90468599531,-584.2736358570401,525.146818030655,460.473636841576,9.472414637682961,-190.694236398675,3427,0,-825,15592,4879,-1008,-459,83,681444,500,6.7975710000000005
-1054.2313629572197,-1987.03648439655,-1821.2751213714898,-837.881636237522,-250.7867227268,594.193807879812,114.880621853517,-194.46359633863898,3427,0,-825,15592,4879,-1008,-459,83,681445,500,6.797674000000001
-668.706054109556,-1291.94199139392,-1085.66362276149,-538.748060105485,-789.4528043016029,170.716623285844,83.8185088277678,-208.115718811052,3427,0,-722,15149,4620,-1596,31,-54,681446,500,6.797777000000001
-373.43106340261903,-414.677746010362,-59.0843429766828,70.69494860642591,-421.027017184824,-358.778533102421,2.45994543359848,-207.676743300632,3427,0,-722,15149,4620,-1596,31,-54,681447,500,6.797893
-274.615542996587,266.81083745078604,631.709971432574,603.956072826055,523.16227799427,-5.163152538822031,-126.576290651283,-269.841117717209,3427,0,-722,15149,4620,-1596,31,-54,681448,500,6.7979970000000005
-468.190899760579,77.2068725920981,620.21808104869,540.248941085447,276.95709030175897,-228.36131343617996,-268.90237316273897,-404.755832629395,3427,0,-722,15149,4620,-1596,31,-54,681449,500,6.798102
-506.293626312428,-536.3495339741929,364.38378236337996,381.9165351021799,580.376058135531,15.3162568127154,-195.78511283343002,-338.226874701912,3427,0,-722,15149,4620,-1596,31,-54,681450,500,6.798227000000001
-357.07636932973395,-825.2178503205071,181.292241798481,81.45316272223141,224.11066930496602,-237.941677613358,-90.77961984171999,-154.259642262477,3427,0,-722,15149,4620,-1596,31,-54,681451,500,6.798356
-404.482773393451,-1151.19005233399,-426.83089622459397,-151.66150927206002,77.990947940998,-40.8418105944293,-47.7003786858986,-139.533083523274,3427,0,-722,15149,4620,-1596,31,-54,681452,500,6.798475000000001
-76.6389586232835,-427.625321224914,-716.3005680242791,-38.0229233522841,603.477876756224,565.209269758081,127.011022982886,81.7142727916362,3427,0,-722,15149,4620,-1596,31,-54,681453,500,6.798592
-1412.4424801441198,-1070.53698122234,-754.6844678373309,-173.24476810669898,507.24999417722603,574.378372292966,49.1116139189689,-299.033481517923,3427,0,-722,15149,4620,-1596,31,-54,681454,500,6.798711000000001
-2481.08524580661,-2157.53263092355,-703.1222634461011,354.07008645188796,271.091916556295,320.067674723279,93.42011841415659,-589.552612799336,3427,0,-722,15149,4620,-1596,31,-54,681455,500,6.7999480000000005
-2219.5718297523,-2296.74792245252,-1244.44915667782,-116.972752413276,124.328230605985,514.11854105664,166.98402939993,-686.615123387077,3427,0,-1044,14649,4644,-841,-48,71,681456,500,6.843832000000001
-121.812706399389,121.780818608706,-25.9987953450764,-90.22429328164431,-310.781487328641,312.202437637723,52.7984355035587,-237.86563601694098,3427,0,-1044,14649,4644,-841,-48,71,681457,500,6.843863000000001
1958.69846330612,1907.89237263496,929.7939673345539,304.873545120703,-14.016908374265801,20.3771749562584,11.5864320819965,519.313102441491,3427,0,-1044,14649,4644,-841,-48,71,681458,500,6.843888000000001
2326.76429381064,2488.07260901364,1031.91138092778,225.97726615535802,103.14918485280899,-51.16793538135239,-157.304647658137,598.224705545465,3427,0,-1044,14649,4644,-841,-48,71,681459,500,6.843914000000001
1999.4888352182502,2023.43892873242,627.889976407983,-128.204101065261,-409.199566967232,-276.842015082948,-51.7939932061709,607.558911639382,3427,0,-1044,14649,4644,-841,-48,71,681460,500,6.843942
1255.86721557408,1233.6106184005,347.14509454788595,-33.7528967007238,-142.993284376193,-450.993487638829,-34.0548317006323,380.24110365856905,3427,0,-1044,14649,4644,-841,-48,71,681461,500,6.843971000000001
734.144246570737,696.071241333382,240.81684662716,160.882262234954,37.4133293945924,-322.841117372795,-161.62281451531499,151.772098055924,3427,0,-1044,14649,4644,-841,-48,71,681462,500,6.844
652.181038834737,1001.95162121614,898.010355964885,764.4914993515409,997.6439110865759,379.10266996215796,-131.573244036757,21.5498619823484,3427,0,-1044,14649,4644,-841,-48,71,681463,500,6.844031
593.078205223865,1196.64831386565,1290.57517702202,1194.5773488257,1811.6884141056198,1143.81556527852,-16.4315854497836,-31.522309777909,3427,0,-1044,14649,4644,-841,-48,71,681464,500,6.844063
768.220545624732,1055.96171798173,1026.28952632495,698.0426949292599,647.8785625595481,366.57722278271103,-32.907913732691696,140.656170302886,3427,0,-1044,14649,4644,-841,-48,71,681465,500,6.844095
679.790328934439,450.923559357761,434.346454374143,611.142282969609,755.665791040316,309.55910514504603,-58.1209139883285,208.32313065323999,3427,0,-1380,14432,4819,673,-251,740,681466,500,6.844131000000001
334.063711268536,-9.43969251390081,121.071158103528,649.521376889228,1385.78163463069,529.5023409301069,-174.441436231369,54.5252309001517,3427,0,-1380,14432,4819,673,-251,740,681467,500,6.844168000000001
241.077931101405,148.09406990045701,233.051661614794,429.021684842883,1120.5589074800998,537.991472031863,-139.246836281498,6.989152648253371,3427,0,-1380,14432,4819,673,-251,740,681468,500,6.8442050000000005
488.1113644836,771.709265881917,619.886094844784,349.38945595242006,629.048883273848,322.760573096224,-123.367456749082,-19.084905698779,3427,0,-1380,14432,4819,673,-251,740,681469,500,6.844244000000001
426.960630263959,618.346968489583,708.7103356296429,297.569102783775,338.426342365448,123.12347914738301,76.161525500007,92.30437953956431,3427,0,-1380,14432,4819,673,-251,740,681470,500,6.844284
338.731889464776,264.151332775014,269.712022725027,-201.795373094064,-257.635325065639,27.336708470364105,-21.9468082502135,113.855614722474,3427,0,-1380,14432,4819,673,-251,740,681471,500,6.844325
420.528512207122,382.422964730416,115.427967234864,-516.041625620535,-1314.29786877288,-430.96610452572304,85.88261230225909,131.15826997172599,3427,0,-1380,14432,4819,673,-251,740,681472,500,6.844372000000001
288.625471132225,405.790487819468,66.4156686707865,-695.168871769769,-1964.1899064810998,-892.472521081625,37.3376889785286,-10.7596976037603,3427,0,-1380,14432,4819,673,-251,740,681473,500,6.844415000000001
182.208199582354,288.732056071749,-54.53065688791679,-561.983096274576,-998.007667173981,12.2579437014065,-222.27043618739103,-169.786175605725,3427,0,-1380,14432,4819,673,-251,740,681474,500,6.844461000000001
-294.548408572184,-430.079889575136,-591.3379239330529,-473.169563869218,1147.65000001993,1467.15645966236,-252.05374869424801,-334.77006798028,3427,0,-1380,14432,4819,673,-251,740,681475,500,6.844507
-324.116459821496,-555.575752202189,-623.55155043141,-467.927497234748,1208.41950029763,1415.1969715305,-349.02999088855006,-327.749922936549,3427,0,-1489,14627,4954,1364,-589,1503,681476,500,6.844557
-84.9910592869855,-166.709567995742,-209.146356262267,-214.295965106809,62.968476204288905,177.29776598187198,-206.28241058054797,-169.755151538528,3427,0,-1489,14627,4954,1364,-589,1503,681477,500,6.844609
335.988327398198,616.7930679732241,602.559266688768,273.682028812851,-338.771057028644,-795.7194103185319,44.9964927583351,71.7354486173717,3427,0,-1489,14627,4954,1364,-589,1503,681478,500,6.844661
191.22451406519403,136.379457426607,-46.764755766605994,-358.434077464393,-1233.34733265286,-1658.17361910961,140.098776759813,86.6146291935584,3427,0,-1489,14627,4954,1364,-589,1503,681479,500,6.8447130000000005
-51.1136441106501,-338.040182372555,-539.910103069153,-674.581019694277,-1348.53803571657,-1791.3140373728197,-25.3598352028057,-41.794861128553705,3427,0,-1489,14627,4954,1364,-589,1503,681480,500,6.9067870000000005
-253.65490812459,-381.198683130322,-440.565650974517,-644.904789030668,-959.4017344433811,-980.6500719661129,-307.007041300822,-285.861217483296,3427,0,-1489,14627,4954,1364,-589,1503,681481,500,6.906815000000001
-217.145306398219,-351.259794568992,-521.318841154571,-885.8728371985491,-441.92525875379204,382.38933045015403,-318.801039002952,-316.194289761712,3427,0,-1489,14627,4954,1364,-589,1503,681482,500,6.906837
135.921951962024,113.57987335370899,-137.957381104585,-589.16146577851,-683.159534855105,385.84110975963995,-116.779798099014,-121.54950390581499,3427,0,-1489,14627,4954,1364,-589,1503,681483,500,6.906861
489.543567077577,509.01048696192396,237.640901547973,-139.12034806085302,-473.174945881561,-290.487808554491,122.473069536209,147.187824027264,3427,0,-1489,14627,4954,1364,-589,1503,681484,500,6.906885000000001
680.7243531935089,672.908911101753,1013.9879374821901,1497.8017282050303,1945.2914276274103,447.791532225267,187.809024289367,342.00744691852003,3427,0,-1489,14627,4954,1364,-589,1503,681485,500,6.906911
670.741745152831,676.728542523342,1194.29000193404,1920.73416472727,2223.75674736887,1022.8031287181699,204.62188556557498,339.606508083874,3427,0,-1254,15104,4928,297,-1096,1296,681486,500,6.906937
554.5266318719661,533.399476420134,669.715012003086,800.984246735112,822.207425440662,259.967686315707,141.717060728581,326.291019308381,3427,0,-1254,15104,4928,297,-1096,1296,681487,500,6.906963
376.141275644011,525.995100145577,519.350672106026,633.282633698604,172.506650227238,148.608297071827,76.61098169162871,132.267188180937,3427,0,-1254,15104,4928,297,-1096,1296,681488,500,6.9069910000000005
147.30025504203502,272.213475385332,-25.6610847808188,-10.341556165221801,-494.92494633101194,-432.40202223981004,-19.4849505449529,-52.3826723947423,3427,0,-1254,15104,4928,297,-1096,1296,681489,500,6.907022
-15.0890558777319,-4.24705151258968,-261.766954460065,-329.916557102668,111.036656753684,-15.374781731225099,-180.961089880555,-160.193631773931,3427,0,-1254,15104,4928,297,-1096,1296,681490,500,6.907053
-36.3254063810164,-65.5870635452447,-207.72143096884201,-408.976203578117,-161.094979694113,-52.7280196244246,-231.101553254761,-164.296115275705,3427,0,-1254,15104,4928,297,-1096,1296,681491,500,6.907084
-182.507167157804,-574.338071185863,-985.1145588933721,-1472.82883139857,-1430.5244672551598,-804.1163031527541,-102.726220734767,-111.69738411949899,3427,0,-1254,15104,4928,297,-1096,1296,681492,500,6.9071180000000005
-584.236561974045,-1213.85033946892,-1084.9635897580301,-644.164257417957,-152.973645471502,-192.607401608489,-113.086973354046,-283.344027516781,3427,0,-1254,15104,4928,297,-1096,1296,681493,500,6.907152000000001
-992.8512650675549,-1742.97300207103,-1095.07973944908,-276.983440898824,499.46287716069503,15.761620805366,-30.895502109720802,-356.442672444042,3427,0,-1254,15104,4928,297,-1096,1296,681494,500,6.907187
-1079.31924471605,-1489.30384916184,-335.866978170583,612.308480478154,1434.8999516592598,670.701267277647,-11.3414808277739,-392.8396243311,3427,0,-1254,15104,4928,297,-1096,1296,681495,500,6.907224
-757.229109140491,-1292.40634331305,-647.442982921726,207.54461107624198,810.342454417842,260.089787788806,186.84312851046002,-111.761582489708,3427,0,-938,15333,4724,-1106,-999,541,681496,500,6.907263
-160.88251314417,-253.232618107228,51.5623004572699,176.50708943759702,-103.577606766718,-448.49686638027197,125.16522652638399,45.5674907065695,3427,0,-938,15333,4724,-1106,-999,541,681497,500,6.907307
841.421774821763,1265.8721767354302,1136.35377816949,945.8159892412081,544.163465491089,-342.288986324274,-15.2470654182252,269.498571539647,3427,0,-938,15333,4724,-1106,-999,541,681498,500,6.907348000000001
477.694018969429,30.173486686428102,156.461667551426,422.554341161536,565.684126162145,-67.4633692998905,-59.4994184941752,229.267395778093,3427,0,-938,15333,4724,-1106,-999,541,681499,500,6.907392000000001
