sep=;
CH1;CH2;CH3;CH4;CH5;CH6;CH7;CH8;Vbat;Trigger;AccX;AccY;AccZ;GyX;GyY;GyZ;N;fs;Timestamp
-443.874918707501;-467.46068361029;-263.931269746739;-101.094745939365;-374.004299500113;-359.581130060484;80.2741213867557;-182.580859860172;3429;0;-881;15345;4382;-956;-147;-144;678020;500;13:30:14.570808
-598.363322672201;-455.988434557687;-347.306169963442;-197.957338932203;-358.446159024665;-330.949559679255;-55.3915353302727;-344.411694677197;3429;0;-881;15345;4382;-956;-147;-144;678021;500;13:30:14.570825
-84.0952740634093;-12.3619281254942;-281.558077919995;-684.144850420882;-601.442276069894;-353.343611852848;-41.2926542974892;-128.572008794989;3429;0;-881;15345;4382;-956;-147;-144;678022;500;13:30:14.570837
-49.26924474322;-291.759680738323;-227.551199599984;-592.829986354365;-296.807343282446;67.7666919348994;7.41290214122273;-76.4095443332335;3429;0;-881;15345;4382;-956;-147;-144;678023;500;13:30:14.570864
-57.6072738845251;-804.168531339383;-586.614528479404;-129.977333752817;270.359008922416;747.952095624874;210.534360887308;145.035135869868;3429;0;-881;15345;4382;-956;-147;-144;678024;500;13:30:14.570877
267.066084489168;-119.638918022509;269.212045056745;1516.61469165442;276.91540255968;559.029841403011;211.368012560008;252.409180340474;3429;0;-881;15345;4382;-956;-147;-144;678025;500;13:30:14.570895
915.610773490829;1678.28665237979;2041.50592309551;2503.60600657263;889.564287701331;373.438629793352;85.9771838961169;314.707617759239;3429;0;-761;15266;4325;-1407;525;39;678026;500;13:30:14.570908
535.443199745059;1037.89699504117;558.930966003798;-309.98709180599;339.79444473621;241.825204647612;8.85491607047152;160.572793993982;3429;0;-761;15266;4325;-1407;525;39;678027;500;13:30:14.570922
518.744492680533;837.743324778974;744.467041805387;584.453878748056;-40.1489094769931;-418.814655542723;5.23886864742963;195.180779939867;3429;0;-761;15266;4325;-1407;525;39;678028;500;13:30:14.570935
422.734262516227;665.893675647443;421.840112503851;108.257387362682;-169.89069137699;-698.533275030088;-115.594288717606;76.3120030768914;3429;0;-761;15266;4325;-1407;525;39;678029;500;13:30:14.570949
529.636901431659;487.220214167261;-4.09905584983062;-539.877276671148;-287.074406402709;-591.14534871967;-94.7957423651824;154.692661915557;3429;1;-761;15266;4325;-1407;525;39;678030;500;13:30:14.570966
392.709688088304;352.49622484704;167.553773034597;16.5735524946649;146.758203312434;-252.538642963977;-63.3219965415774;152.588745564222;3429;0;-761;15266;4325;-1407;525;39;678031;500;13:30:14.570984
320.08300674468;326.765414273366;187.994516051724;71.1892236180138;43.5131701493228;-30.4438205765327;37.3234344474622;191.24871368194;3429;0;-761;15266;4325;-1407;525;39;678032;500;13:30:14.571007
298.038031242875;318.236792722135;137.6166374397;-11.0231693794485;18.0741993267729;157.07883392903;47.2733934753342;157.868667725939;3429;0;-761;15266;4325;-1407;525;39;678033;500;13:30:14.571032
226.569343000534;297.877234753105;135.562291434733;22.0723462101014;114.189242937806;368.090979100554;27.2848561503924;89.124406414805;3429;0;-761;15266;4325;-1407;525;39;678034;500;13:30:14.571054
315.977405516198;323.472565983189;133.52828139218;-32.695967744221;-11.5121352027345;403.541748004733;74.1258624760667;190.171982420725;3429;0;-761;15266;4325;-1407;525;39;678035;500;13:30:14.571081
348.60676777194;323.891919798334;165.301806660602;-22.1855536832591;-89.930996016541;40.0417241666;42.8668086156831;209.456784542301;3429;0;-778;14938;4426;-762;700;112;678036;500;13:30:14.571100
394.727431703563;489.255212331889;480.883500549942;471.155170375423;315.593644175591;-360.657889586641;-54.5845701137441;201.661394516705;3429;0;-778;14938;4426;-762;700;112;678037;500;13:30:14.571121
318.025870608864;288.823144335765;248.926184632233;282.569187431043;152.587641802587;-333.997318597627;-13.6798650473356;179.049246228999;3429;0;-778;14938;4426;-762;700;112;678038;500;13:30:14.571144
129.976338890119;58.0890786831733;76.4992832242278;196.695521796966;249.985276263033;-227.163128205924;0.877162634104025;8.6442544288002;3429;0;-778;14938;4426;-762;700;112;678039;500;13:30:14.571164
80.4132779245847;-27.66018127813;156.646680035861;417.960368847853;462.42513342711;-214.072556478204;-105.984675810789;-7.58990800054744;3429;0;-778;14938;4426;-762;700;112;678040;500;13:30:14.571203
5.62859377378481;-409.467671884922;-520.453854048857;-781.630238981626;-1001.27479761961;-326.349090287229;145.247030000552;128.422137478949;3429;0;-778;14938;4426;-762;700;112;678041;500;13:30:14.571233
-248.090489726368;-848.103422495653;-604.755644394667;-564.033903964242;-486.989354934281;57.674916068092;95.2118160557584;10.319095099112;3429;0;-778;14938;4426;-762;700;112;678042;500;13:30:14.571276
-509.562649720843;-1184.834904833;-526.994065801962;-174.233400678058;-0.969531608338002;404.107407873729;69.6476084907772;-94.384546623216;3429;0;-778;14938;4426;-762;700;112;678043;500;13:30:14.571313
-188.395519109239;-592.13707390707;-156.033986555762;110.33780334788;250.419354909216;785.947708626161;165.636955976777;41.7158886539983;3429;0;-778;14938;4426;-762;700;112;678044;500;13:30:14.571336
142.680771544459;200.87545316224;255.018312160741;292.970121522696;379.409563034918;826.108831594815;158.06524025579;68.7904907219345;3429;0;-778;14938;4426;-762;700;112;678045;500;13:30:14.571359
618.678983677877;1113.16411409935;730.489696392207;546.847490185668;555.467646777426;859.773542078678;256.912729519885;168.067769522429;3429;0;-521;15042;4218;933;1041;-353;678046;500;13:30:14.571384
258.930598120554;111.986223411397;24.3929700712906;80.0482150687021;288.082007875375;577.966552493162;205.453807554441;83.2493820009986;3429;0;-521;15042;4218;933;1041;-353;678047;500;13:30:14.571411
-390.484369547048;-1116.1863796321;-948.154820206226;-601.536566811905;-224.41243777101;72.0881466489518;89.0421808411484;-95.9127171824221;3429;0;-521;15042;4218;933;1041;-353;678048;500;13:30:14.571437
-929.418370475236;-1363.05660433043;-1118.49211374682;-706.163365903369;-490.011538663442;-365.863496945822;-93.4939581241342;-396.058247230831;3429;0;-521;15042;4218;933;1041;-353;678049;500;13:30:14.571466
-373.433619058895;249.527568400372;-171.675058920053;-389.10122354835;-398.50098490261;-389.902002651361;-23.3228873400949;-259.166696456494;3429;0;-521;15042;4218;933;1041;-353;678050;500;13:30:14.571493
409.153118156624;735.924673494068;-160.858994707116;-595.712536817387;-624.128881905519;-668.024070697604;-168.676381988043;-57.393455130863;3427;0;-521;15042;4218;933;1041;-353;678051;500;13:30:14.571520
543.965885809739;517.615230474621;-163.090390459867;-482.71529011149;-552.765792765509;-577.941906642285;-281.401975472691;33.5439844253706;3427;0;-521;15042;4218;933;1041;-353;678052;500;13:30:14.571551
420.687254332559;460.017349070869;89.1115249440772;-196.210850288102;-217.935677068424;-213.694279785501;-270.478039178415;-6.83626546477899;3427;0;-521;15042;4218;933;1041;-353;678053;500;13:30:14.572085
185.644524672098;245.115034195594;77.7989657010185;-80.2259050591092;-176.458478628541;-176.954470821191;-247.754952399177;-78.5118666004855;3427;0;-521;15042;4218;933;1041;-353;678054;500;13:30:14.572151
-5.72671819050447;119.342691862374;234.567744760425;376.162508006295;179.525253190164;3.4266905997647;-286.918177012412;-134.3831210098;3427;0;-521;15042;4218;933;1041;-353;678055;500;13:30:14.572195
-420.288331212243;-157.900636522332;313.844902968151;695.662355958339;530.062733041181;274.967299457407;-189.437841521925;-161.726497048629;3427;0;-570;15048;3877;-286;2914;-417;678056;500;13:30:14.572224
-323.839626382949;-173.301571312826;249.020284944214;543.090555962874;164.679630719853;-53.1415984758642;-27.5801369827823;-29.7226642509922;3427;0;-570;15048;3877;-286;2914;-417;678057;500;13:30:14.572292
-68.5895003079204;-74.2225608509034;64.7521160847973;295.015604121407;-23.2352393603651;-354.29488060053;-44.6294388844981;-27.5593762145145;3427;0;-570;15048;3877;-286;2914;-417;678058;500;13:30:14.601832
76.1511995327892;-29.0464726745849;-254.354471016093;-462.7460853089;-766.294212637295;-653.661006138311;-42.5829018825316;-47.284439885756;3427;0;-570;15048;3877;-286;2914;-417;678059;500;13:30:14.601848
278.706192046549;194.440934265731;-124.267798868241;-474.66083181501;-666.290803812357;-616.358051931951;-59.4414303835947;5.78215304471087;3427;0;-570;15048;3877;-286;2914;-417;678060;500;13:30:14.601860
279.971523194778;354.511318235309;194.998534576269;58.1647939030081;-111.380538003606;-480.122121716617;-197.324146632862;-38.2075563122053;3427;0;-570;15048;3877;-286;2914;-417;678061;500;13:30:14.601873
178.854202537914;400.275533546228;396.9831998765;410.428705563885;256.736398514244;-153.775613983045;-183.421578051348;-50.8402962562395;3427;0;-570;15048;3877;-286;2914;-417;678062;500;13:30:14.601885
177.373482197901;315.271787201054;299.299804069684;298.172977841459;266.472607375996;405.013183041709;22.1076055828016;43.0175657080254;3427;0;-570;15048;3877;-286;2914;-417;678063;500;13:30:14.601898
495.890596151003;477.766261412529;367.786401756224;289.663248944533;319.801614264521;571.234477452235;120.725950045802;229.113809721079;3427;0;-570;15048;3877;-286;2914;-417;678064;500;13:30:14.601911
648.430025853013;609.394147315645;440.372053266154;250.442289382394;261.152528148697;584.30818437296;93.8897446375922;260.833947075531;3427;0;-570;15048;3877;-286;2914;-417;678065;500;13:30:14.601924
310.115961253439;242.481239830726;55.9044489845401;-69.5289080896764;-77.010854732478;233.484567379695;-2.17725795716979;97.3734651395353;3427;0;-952;15237;4204;-346;1537;182;678066;500;13:30:14.601938
-81.6227470832819;-151.659117344767;-322.770438039326;-448.107649066078;-538.147814924509;-156.692021948518;-68.2258651000448;-105.786914756522;3427;0;-952;15237;4204;-346;1537;182;678067;500;13:30:14.601954
-261.767062594387;-237.778953561326;-264.424204854644;-303.205626970215;-465.825790487637;-218.028719838359;6.6712332436;-196.100276122335;3427;0;-952;15237;4204;-346;1537;182;678068;500;13:30:14.601970
-285.620824484708;-360.576370450086;-401.570486171986;-368.787939380505;-503.700726409588;-432.621575435274;-66.4416813681601;-249.503260598634;3427;0;-952;15237;4204;-346;1537;182;678069;500;13:30:14.601987
-306.184260513546;-728.275245927856;-680.087818629225;-448.442997323757;-446.677029123064;-423.90598641301;-38.2705938332947;-167.080075473874;3427;0;-952;15237;4204;-346;1537;182;678070;500;13:30:14.602003
-322.503906675091;-969.122998231207;-626.170375771122;-148.468411126669;-138.930101146892;-137.03364729532;-40.2621888740687;-121.454487882787;3427;0;-952;15237;4204;-346;1537;182;678071;500;13:30:14.602021
-175.632713707862;-619.621014314587;-386.077378183138;78.2037300122611;-74.5136658713745;29.9933415923733;-172.408096279541;-181.731005399721;3427;0;-952;15237;4204;-346;1537;182;678072;500;13:30:14.602039
208.904121227592;216.451420853147;-101.267652041861;53.6055911468284;-259.335298342747;-118.096728080302;-194.578680359758;-147.835520402296;3427;0;-952;15237;4204;-346;1537;182;678073;500;13:30:14.602058
148.401129917183;429.926929714507;110.427153391531;98.8747660590161;-72.1651204304944;-37.7586899903836;-215.471022113867;-232.613323701313;3427;1;-952;15237;4204;-346;1537;182;678074;500;13:30:14.632986
-334.688047722011;15.6533171512419;85.9436431794893;137.612270720332;175.276555805351;160.827135608299;-236.09401064401;-397.810505699366;3427;0;-952;15237;4204;-346;1537;182;678075;500;13:30:14.633003
-1361.27305433614;-539.528236175654;-120.093062107684;-23.8823727552081;206.959643435577;233.702207951341;-148.131856045104;-823.278145144228;3427;0;-965;15659;3766;-444;2624;-358;678076;500;13:30:14.633014
-2859.93302612225;-1490.22285588551;-518.326376363635;-170.440660782391;182.589167159575;269.883194517461;-85.1122566807317;-1521.64927869267;3427;0;-965;15659;3766;-444;2624;-358;678077;500;13:30:14.633027
-3793.20534024714;-2373.3371116746;-857.903988667647;-103.494110314496;109.822294135025;312.557995206444;7.92983871733304;-2054.22766646859;3427;0;-965;15659;3766;-444;2624;-358;678078;500;13:30:14.633039
-3740.80294478679;-2532.81399841572;-942.783295592642;-194.391428561939;-158.801950767927;46.6262715962948;-173.470497262664;-2198.47614612128;3427;0;-965;15659;3766;-444;2624;-358;678079;500;13:30:14.633052
-2252.94480902504;-1878.30928851711;-669.810743164155;-66.5155754630105;-143.828982174949;-167.292804690427;-201.549297528574;-1287.46596957534;3427;0;-965;15659;3766;-444;2624;-358;678080;500;13:30:14.633065
-95.9059730168956;-405.107325013378;32.0588852161309;18.028652130859;-195.618351452926;-296.052992567536;-180.575979812536;-245.676101244055;3427;0;-965;15659;3766;-444;2624;-358;678081;500;13:30:14.633080
1659.55755440841;959.282531643519;482.688338491833;-227.41361961214;-388.859027652943;-383.443779867026;-48.5579055990675;869.569642019575;3427;0;-965;15659;3766;-444;2624;-358;678082;500;13:30:14.633095
1778.1963487039;1131.9883896386;222.111614793539;-269.04518088678;-201.053959960496;-80.1796615518397;-29.4861282993224;952.26434021804;3427;0;-965;15659;3766;-444;2624;-358;678083;500;13:30:14.633112
1457.04173140475;1047.10032332258;367.247457010322;169.833153612388;237.819019864604;295.81895659829;-106.051002056804;610.553087390726;3427;0;-965;15659;3766;-444;2624;-358;678084;500;13:30:14.633127
249.443808030133;689.951017855899;670.549611432711;521.736994441395;464.50287446499;437.555173687753;-16.6937040941557;99.1795129327802;3427;0;-965;15659;3766;-444;2624;-358;678085;500;13:30:14.633144
-1279.96361852592;-114.919894719496;687.813931354205;860.282136453316;788.706091679516;563.591799699003;78.5045944379526;-547.917726708809;3427;0;-1169;15382;3921;-1571;2253;-549;678086;500;13:30:14.633161
-1429.78320070717;-208.1503382558;526.955089268158;712.598889974732;646.737753498426;416.739657349885;31.3990217024111;-951.394765149569;3427;0;-1169;15382;3921;-1571;2253;-549;678087;500;13:30:14.633178
-697.216565565817;126.108783694217;391.934261589544;387.857599215436;334.598812067794;50.0996091060806;-131.387851418171;-878.760191494948;3427;0;-1169;15382;3921;-1571;2253;-549;678088;500;13:30:14.664220
1008.05058272919;612.206954588415;61.8224107745336;-132.586597617657;-298.610353149328;-698.531170548755;-318.967865499901;-45.7885402716929;3427;0;-1169;15382;3921;-1571;2253;-549;678089;500;13:30:14.664238
2211.00990617965;1117.05445554282;57.8043081758078;-267.909044237167;-940.794084774796;-1300.64878874505;-296.499927075231;877.15127722919;3427;0;-1169;15382;3921;-1571;2253;-549;678090;500;13:30:14.664251
1630.98551087859;849.375303658657;-11.7531392729143;-444.262187274406;-952.83625826487;-1014.73703701317;-178.901289283123;753.047548244591;3427;0;-1169;15382;3921;-1571;2253;-549;678091;500;13:30:14.664264
1052.17789464007;490.599663149682;-188.759848849266;-596.53321575158;-643.710621452541;-409.388350456138;-24.0080791973742;462.520940289251;3427;0;-1169;15382;3921;-1571;2253;-549;678092;500;13:30:14.664277
949.605291793734;456.271404992789;-118.093393169693;-459.686632415716;-468.600800229266;-160.38803550147;-61.8474922146997;388.26593609585;3427;0;-1169;15382;3921;-1571;2253;-549;678093;500;13:30:14.664292
907.901119729795;555.515933228657;148.456988522667;-8.51961407563067;45.1956380806805;203.764906631899;-67.4120659279288;369.57902841433;3427;0;-1169;15382;3921;-1571;2253;-549;678094;500;13:30:14.664306
769.294988098874;527.293541772175;236.773566237534;177.645864728984;280.287622631935;287.100910744397;-152.4042078809;218.942725149798;3427;0;-1169;15382;3921;-1571;2253;-549;678095;500;13:30:14.664321
676.1144010805;477.540481787291;298.140569656622;298.8735566166;393.183269867674;301.810218923143;-182.666704645788;135.766206629807;3427;0;-1300;15063;4358;-1165;1726;-2;678096;500;13:30:14.664336
436.002716116898;218.709529575775;178.861459493171;214.857665647811;252.242115729867;132.480937573593;-128.075688545068;15.8606969560497;3427;0;-1300;15063;4358;-1165;1726;-2;678097;500;13:30:14.664353
-456.006399463193;-570.53951941838;-241.034000020707;-150.341422191937;-171.16032176491;-191.750898944796;-50.3114601608249;-302.291078101727;3427;0;-1300;15063;4358;-1165;1726;-2;678098;500;13:30:14.664370
-2065.27439411389;-1838.83335052873;-654.682675989694;-258.562514532765;-210.651336250652;-191.93996026169;20.5211582697812;-757.569941696012;3427;0;-1300;15063;4358;-1165;1726;-2;678099;500;13:30:14.664388
-2090.20846313916;-1784.44045181596;-512.6046564196;-77.2355958755361;-50.8916737269319;-74.8570694861701;131.212023725384;-669.516904429998;3427;0;-1300;15063;4358;-1165;1726;-2;678100;500;13:30:14.664406
-1042.49692168544;-1365.95191074722;-613.76111783064;-218.156327974371;-167.399038498814;-184.813758043456;11.9538090450806;-436.456488664611;3427;0;-1300;15063;4358;-1165;1726;-2;678101;500;13:30:14.664424
523.826139799523;-426.944010811043;-569.537065568496;-441.777141707396;-387.782017935417;-315.252494276734;-172.396599600266;111.709441789542;3427;0;-1300;15063;4358;-1165;1726;-2;678102;500;13:30:14.664836
1277.55915113012;462.592113833525;-120.394449548214;-263.10208176155;-296.342586960382;-153.876052852022;-258.044720042846;373.782884865534;3427;0;-1300;15063;4358;-1165;1726;-2;678103;500;13:30:14.664858
1191.05766583866;1019.027924038;269.481776222936;-1.18578271771548;-61.9401990335318;105.859558853437;-242.244783950504;276.807768385508;3427;0;-1300;15063;4358;-1165;1726;-2;678104;500;13:30:14.695586
1344.08877572342;1500.90033585636;652.491231054068;330.003276308533;225.187234539451;317.628902023542;-133.220500728989;320.15727966628;3427;0;-1300;15063;4358;-1165;1726;-2;678105;500;13:30:14.695651
638.546835942514;295.277621361776;-120.06605925539;110.483103943698;232.458770736674;275.323436808074;-84.1834977023536;187.059798018425;3427;0;-1206;14831;4505;-298;2365;618;678106;500;13:30:14.695700
168.364680914936;-486.87135090318;-700.12176338979;-153.999894761859;214.786724500795;112.298427315662;-52.6492442764575;104.310643450939;3427;0;-1206;14831;4505;-298;2365;618;678107;500;13:30:14.695752
-21.6785536910174;-669.942339007626;-1034.40725922002;-589.079633249406;-155.45299199794;-325.950372012332;-91.0689591331175;-15.1716050585965;3427;0;-1206;14831;4505;-298;2365;618;678108;500;13:30:14.695818
107.657352028909;-165.015952743008;-875.554505079868;-826.910029456951;-555.844240744744;-862.063222422497;-313.842130495876;-199.742185659241;3427;0;-1206;14831;4505;-298;2365;618;678109;500;13:30:14.695894
452.010598913475;477.704685504315;79.3271356443875;74.1139973487589;-412.603183347645;-984.011394435307;-349.977975157904;-156.419639438391;3427;0;-1206;14831;4505;-298;2365;618;678110;500;13:30:14.695953
106.360956637101;2.36580541671719;426.033501582569;660.790670802788;34.9391460169863;-312.38230972155;-245.530606041022;-175.244230304961;3427;0;-1206;14831;4505;-298;2365;618;678111;500;13:30:14.696014
30.3538105419429;-55.6262589662801;513.000751167187;826.716652284726;295.035705163464;245.534738122369;-123.496745489596;-89.4835084816441;3427;0;-1206;14831;4505;-298;2365;618;678112;500;13:30:14.696077
151.062654620706;216.038072238094;609.793052084511;1012.40056370141;106.674315973505;255.877006627852;-127.200262386235;-42.5525995778153;3427;0;-1206;14831;4505;-298;2365;618;678113;500;13:30:14.696143
466.026198364329;866.893748824019;651.69040530955;482.216139945231;516.90873354167;650.659894342185;-93.0901814971585;17.7063616699306;3427;0;-1206;14831;4505;-298;2365;618;678114;500;13:30:14.696213
789.956951043976;1203.51378966216;527.083356059389;-156.640920063917;627.851037458808;837.763034824049;-133.933380200644;151.743095856626;3427;0;-1206;14831;4505;-298;2365;618;678115;500;13:30:14.696284
397.295439312846;591.823996782652;293.705862403731;-14.3792940800777;279.266246721731;477.923835904454;-150.411371027178;37.65097227972;3427;0;-1069;14871;4634;184;1880;704;678116;500;13:30:14.696359
1.57185902810306;179.542692696676;232.168090984575;184.737388211273;312.647151985002;259.696482737781;-128.915328058181;-102.842761750333;3427;0;-1069;14871;4634;184;1880;704;678117;500;13:30:14.696433
67.9132325109676;35.7456057231175;196.233341111336;211.429674823361;41.5125751101295;-45.2530389160383;33.4293053515721;106.233197928523;3427;0;-1069;14871;4634;184;1880;704;678118;500;13:30:14.696511
151.310915196227;157.085593325901;138.877221376868;133.436978717305;-252.075152461854;-382.167494974332;-34.816348405031;33.4513813295634;3427;0;-1069;14871;4634;184;1880;704;678119;500;13:30:14.696591
551.660015442583;795.639703526977;476.749179390841;386.33677158042;-130.575758764724;-357.110968491994;75.6721875643707;98.714125540806;3427;0;-1069;14871;4634;184;1880;704;678120;500;13:30:14.742214
651.845338517567;864.721799385035;487.415606920607;286.26454899268;-88.1007153287646;-239.934929436189;198.69044117548;202.907858462888;3427;0;-1069;14871;4634;184;1880;704;678121;500;13:30:14.742253
526.167332574463;560.252430719323;248.499395630788;34.3938531091844;-110.746144625678;-110.30030327593;88.6217862456688;262.06764153298;3427;0;-1069;14871;4634;184;1880;704;678122;500;13:30:14.742282
23.4207966211543;242.669555829954;326.580803450313;343.158787891589;229.612955021177;341.68108273379;17.6865312600858;43.2231542177033;3427;1;-1069;14871;4634;184;1880;704;678123;500;13:30:14.742312
-1821.56214861348;-1013.02839297033;301.318465166958;1097.22777575863;730.674584019114;804.898486225051;111.604545575567;-481.945230052457;3427;0;-1069;14871;4634;184;1880;704;678124;500;13:30:14.742343
-3868.02046548692;-3555.8070348663;-1542.19591418072;-74.1057910919772;493.059369361552;1040.69431385188;374.275963498512;-1046.24882466008;3427;0;-1069;14871;4634;184;1880;704;678125;500;13:30:14.742375
-3503.78014863253;-3505.80823882984;-1841.20275133627;-293.706300332473;430.310214702913;1037.98686787917;319.62867885438;-1284.47189273045;3427;0;-1057;14989;4657;351;1926;94;678126;500;13:30:14.742408
-510.523300951667;-497.913605848677;-349.647599199205;194.013157965499;208.334627677483;400.268637343426;174.226622626826;-291.399279207108;3427;0;-1057;14989;4657;351;1926;94;678127;500;13:30:14.742442
1896.82636111657;1733.09126705397;636.359313380439;348.691923521663;-283.163620954525;-467.00694350095;14.7335461568437;527.302805737243;3427;0;-1057;14989;4657;351;1926;94;678128;500;13:30:14.742478
1383.23111865891;838.66059580713;-463.920306746615;-918.638025494787;-791.369180819776;-655.636317219702;303.423692802084;471.201132025453;3427;0;-1057;14989;4657;351;1926;94;678129;500;13:30:14.742515
504.334188615758;60.7036218424328;-383.783494842239;-377.387451717659;-391.869436199486;-103.530912859831;777.308616628405;423.731530376943;3427;0;-1057;14989;4657;351;1926;94;678130;500;13:30:14.742555
981.925446236011;438.248717264622;425.771154506132;559.586128321447;51.3503669051861;-249.963453063159;-150.968269493897;510.993844797835;3427;0;-1057;14989;4657;351;1926;94;678131;500;13:30:14.742594
1144.45901213572;1149.92938358174;1288.79928508494;1569.30542633522;621.201559220703;254.358757708455;-387.924618266348;227.472779523698;3427;0;-1057;14989;4657;351;1926;94;678132;500;13:30:14.742636
923.319416789163;1922.23983196856;1990.94382118457;2052.58713317235;1072.61259534647;549.648860938847;-375.457601302478;185.982458645827;3427;0;-1057;14989;4657;351;1926;94;678133;500;13:30:14.742678
220.950712454825;1117.69250687049;984.935852889554;558.160557396302;1005.57132866528;948.554467474925;-105.751254005416;11.8409637636505;3427;0;-1057;14989;4657;351;1926;94;678134;500;13:30:14.742729
106.69847832591;890.577504587243;1123.3291077225;788.636583610409;758.465988369862;606.075403964147;-293.550853324879;-150.188884330331;3427;0;-1057;14989;4657;351;1926;94;678135;500;13:30:14.742775
298.948927948135;592.726511105779;540.47775522992;281.825025346916;103.999486945948;-51.1431740297703;-482.968712681788;-145.227557442035;3427;0;-1274;15000;4884;-287;697;-112;678136;500;13:30:14.742823
1059.19722370012;828.238541991333;182.514179802034;-174.943779006455;-274.980482159444;-523.265677163494;-447.403040602978;254.194783757441;3427;0;-1274;15000;4884;-287;697;-112;678137;500;13:30:14.742874
837.032509859593;600.672519137035;-151.111443861737;-532.589520777809;-455.436503207136;-735.072820841568;-353.6329235062;256.089455693844;3427;0;-1274;15000;4884;-287;697;-112;678138;500;13:30:14.742927
360.229025444918;312.324973636307;-132.753682885668;-388.875010884192;-477.602987552265;-808.062875436852;-374.306993443577;-10.361075011082;3427;0;-1274;15000;4884;-287;697;-112;678139;500;13:30:14.742980
278.914188694645;218.365294454503;-168.28226134635;-443.701689734968;-591.892327490088;-704.216649772599;-241.671277436719;-3.18482357880566;3427;0;-1274;15000;4884;-287;697;-112;678140;500;13:30:14.743036
197.61010882401;142.464087205473;-126.842099597561;-195.727426432364;-346.982560526056;-514.189937340794;-280.613025653234;-81.5602430093568;3427;0;-1274;15000;4884;-287;697;-112;678141;500;13:30:14.743097
211.719484038389;103.279997900245;-57.0958169943187;100.832662904373;-4.74919692912954;-146.647996084997;-216.701600389555;-50.6353796891635;3427;0;-1274;15000;4884;-287;697;-112;678142;500;13:30:14.743156
129.250968597946;-41.7496711143758;-145.230185959837;119.411432720895;118.561406220106;133.82895774697;-224.135774080525;-99.594416496926;3427;0;-1274;15000;4884;-287;697;-112;678143;500;13:30:14.743215
47.8072348101996;-157.141701243934;-218.34580278513;-146.457926549076;20.7095489777275;328.317172879935;-142.031152709096;-71.4196906267898;3427;0;-1274;15000;4884;-287;697;-112;678144;500;13:30:14.774123
-41.5650359509455;-30.5999712935882;-140.484110274119;-442.788783449767;-204.114433909679;329.56448706123;-54.9837896785466;-33.6565410891781;3427;0;-1274;15000;4884;-287;697;-112;678145;500;13:30:14.774160
271.653886160668;330.874342671596;-33.776841135812;-421.377916714962;-122.036484916229;345.689489788841;-18.7086157573503;89.0985292830737;3427;0;-1567;14964;5021;-404;187;-104;678146;500;13:30:14.774189
74.1401251389761;101.511342924903;24.8931362755829;-21.6005612451409;-31.0412604922021;188.687711654231;-17.6668256741832;6.59917301300447;3427;0;-1567;14964;5021;-404;187;-104;678147;500;13:30:14.774220
157.338931032456;232.757266354398;168.29165670264;3.51167597822496;-222.411347809422;-187.96627861273;-32.537292654044;76.1792298621731;3427;0;-1567;14964;5021;-404;187;-104;678148;500;13:30:14.774251
-0.000261257431702688;-109.674400597694;-351.942183039384;-681.224665349757;-574.357303182653;-427.741050290177;-157.526620369812;-50.8806225778535;3427;0;-1567;14964;5021;-404;187;-104;678149;500;13:30:14.774285
-138.480942466675;-297.76984984905;-340.967590673594;-463.011761786358;-476.687352735316;-374.33086189162;-203.436713366944;-142.564404159319;3427;0;-1567;14964;5021;-404;187;-104;678150;500;13:30:14.774319
-233.489524551725;-305.624129950418;-239.685758896172;-265.393131054501;-102.963174274541;58.0381138483062;-266.6529409957;-163.535422088578;3427;0;-1567;14964;5021;-404;187;-104;678151;500;13:30:14.774353
-120.603269732703;3.63672616274562;78.964867866016;140.442295873596;482.734730357595;686.735959225567;-166.09488432057;-60.019856889965;3427;0;-1567;14964;5021;-404;187;-104;678152;500;13:30:14.774389
-239.671124082583;-448.199220859911;-788.924929200439;-626.447667242319;-322.195217616565;272.072170743952;-160.19821314502;-130.706473912229;3427;0;-1567;14964;5021;-404;187;-104;678153;500;13:30:14.774428
-680.210217995947;-1486.64791850769;-1770.16400425055;-879.906902243092;-163.064272556134;401.186440744787;-96.7316094950656;-169.69910630933;3427;0;-1567;14964;5021;-404;187;-104;678154;500;13:30:14.774466
-398.730183367414;-820.714158867719;-918.536906599067;-70.8329283833154;14.9545422622468;447.185420140624;84.2020365202916;-4.48016063706018;3427;0;-1567;14964;5021;-404;187;-104;678155;500;13:30:14.774507
785.547027603752;1487.54830475035;1623.78488711349;1248.86330052992;-1479.73779326241;-1190.81376901246;-65.0633608233766;315.687647657702;3427;0;-1681;14850;5027;-199;-755;-83;678156;500;13:30:14.775324
301.410564376798;697.244973851368;379.921462952625;-1162.59319415598;-2211.39065618324;-1586.99701548554;-175.693593094242;128.01550765906;3427;0;-1681;14850;5027;-199;-755;-83;678157;500;13:30:14.775373
-264.141584829864;-230.29099078523;11.166814474971;-372.845853373001;-376.910832161724;-461.713711626362;-163.698355499015;-53.343052633456;3427;0;-1681;14850;5027;-199;-755;-83;678158;500;13:30:14.775428
-484.747119923413;-549.987246074714;698.400235167821;1956.30433785575;1691.06165561077;393.148824861506;-251.22111810284;-189.703656178084;3427;0;-1681;14850;5027;-199;-755;-83;678159;500;13:30:14.775485
-521.716931308882;-639.095461727236;109.997699242202;512.849524646677;1540.93902866048;668.897691685823;-163.735456988157;-157.404594983556;3427;0;-1681;14850;5027;-199;-755;-83;678160;500;13:30:14.822145
139.40528593483;517.104505212978;777.084042921546;618.763219413202;617.508555027598;5.0678175506182;-164.785550470813;-4.26565745542757;3427;0;-1681;14850;5027;-199;-755;-83;678161;500;13:30:14.822207
735.622517491749;1263.33474298147;864.405331892776;439.11857135914;533.37614451634;113.71842490579;-107.18503524788;168.823493298609;3427;0;-1681;14850;5027;-199;-755;-83;678162;500;13:30:14.822258
810.598606239742;1423.82378305029;850.233881481458;629.386190258956;892.490533907403;397.894598847954;-193.399084372097;146.957735538133;3427;0;-1681;14850;5027;-199;-755;-83;678163;500;13:30:14.822308
690.826080969069;1028.73612722254;579.819505360676;621.485071401083;1007.59249824591;576.150553520303;-145.366918683751;221.752657232457;3427;0;-1681;14850;5027;-199;-755;-83;678164;500;13:30:14.822365
519.853598893358;817.416228100657;556.227107799263;534.158536003699;836.012377512554;682.595636021695;-166.497360561509;188.280255085905;3427;0;-1681;14850;5027;-199;-755;-83;678165;500;13:30:14.822422
226.77751155282;354.304138675099;297.389637949876;387.283040065697;634.742240117688;623.716535383603;-162.513740199734;81.6812391907442;3427;0;-1394;14666;5069;690;-1342;-246;678166;500;13:30:14.822480
44.6770084376039;-87.1386474763276;-52.63307851844;16.6461003862205;-66.8749904926808;229.661994675524;-1.56157872837503;158.265777810127;3427;0;-1394;14666;5069;690;-1342;-246;678167;500;13:30:14.822542
105.335391438333;-71.9045438172761;-393.313976225327;-773.69270440258;-1317.2195869881;-410.898480599048;136.512029690843;296.493748661946;3427;0;-1394;14666;5069;690;-1342;-246;678168;500;13:30:14.822606
-47.4295531468233;-288.400743157719;-924.499350826256;-1384.20092926396;-2226.94338853931;-947.050239281496;-13.3428850705386;116.972603928531;3427;0;-1394;14666;5069;690;-1342;-246;678169;500;13:30:14.822673
-306.603279536415;-1058.67997785658;-2208.23726312479;-2404.40436688092;-3841.7104188808;-2110.47960039834;-23.1951815476059;79.8069242206402;3427;0;-1394;14666;5069;690;-1342;-246;678170;500;13:30:14.822739
-784.133881483984;-2097.54752452043;-3434.12010402803;-2779.75071953484;-3575.86876855025;-2315.23849570053;-245.585238091357;-94.0347545160912;3427;0;-1394;14666;5069;690;-1342;-246;678171;500;13:30:14.822809
-973.446458431514;-2187.25058911054;-2584.52357033174;-1112.12713874984;181.799050429428;480.782958440483;-170.045846742461;-156.389748873422;3427;0;-1394;14666;5069;690;-1342;-246;678172;500;13:30:14.822880
-1075.88830922125;-1848.43674758321;-1089.56270963221;-119.169970787741;1826.53612343737;2568.10934613919;-84.5118978258106;-320.315796302981;3427;0;-1394;14666;5069;690;-1342;-246;678173;500;13:30:14.822955
-666.223087412451;-878.777563986601;-12.7139175948687;548.361918913404;1453.23232744413;2074.34713083412;-66.6237670786213;-235.733120043413;3427;0;-1394;14666;5069;690;-1342;-246;678174;500;13:30:14.823036
325.656495046656;870.82294605975;1205.71229342802;1347.65449929755;1737.4245766954;1264.69575682585;45.4494901408325;139.963956947788;3427;0;-1394;14666;5069;690;-1342;-246;678175;500;13:30:14.823118
778.451354516088;1731.99383123673;1539.34771419363;887.773709497676;782.773095156706;216.668981441879;32.8968744013109;320.164617842296;3427;0;-1071;14505;5041;1399;-1105;-399;678176;500;13:30:14.823198
880.731291939883;1766.47692031774;1715.71943576261;758.556035022804;82.4865169842378;-296.561922421679;-46.0812777969986;410.652731169946;3427;0;-1071;14505;5041;1399;-1105;-399;678177;500;13:30:14.823282
733.262852854852;1547.05478729343;1830.19657060341;1468.65036236911;1023.66689624597;147.643135617836;-70.409057698329;342.982821961865;3427;0;-1071;14505;5041;1399;-1105;-399;678178;500;13:30:14.823369
674.06313295124;1130.56906359177;1291.27477377327;1522.89071020318;1266.37514010735;-71.5647907542298;-102.380244501168;347.694239039789;3427;0;-1071;14505;5041;1399;-1105;-399;678179;500;13:30:14.823476
109.759387835162;-202.956560836174;-761.399528537411;-464.760889738012;-369.196425695089;-1047.2546367899;-54.4484617948765;197.308760497952;3427;0;-1071;14505;5041;1399;-1105;-399;678180;500;13:30:14.823573
-126.521688575071;-493.281481401878;-583.287527865032;-636.842015043861;-1834.27308736043;-1691.72659726045;-22.0193008909118;109.412051787134;3427;0;-1071;14505;5041;1399;-1105;-399;678181;500;13:30:14.823669
-82.5919525724603;-36.6393057567766;182.908414719161;-236.338872471097;-1570.74481906128;-1267.75685491366;-138.06244146463;4.72125634271652;3427;0;-1071;14505;5041;1399;-1105;-399;678182;500;13:30:14.823764
298.666171825258;1022.4745627254;952.447762167663;54.8287695444305;593.572048936505;835.368107533781;-197.994993783184;-40.0313334891107;3427;0;-1071;14505;5041;1399;-1105;-399;678183;500;13:30:14.823863
180.265847043309;817.195723045035;1091.24844590621;1233.74862263424;2593.70103290241;2306.01160975458;-211.459022314637;-63.354818435153;3427;0;-1071;14505;5041;1399;-1105;-399;678184;500;13:30:14.869021
277.986209030321;464.392621364212;529.669364869595;559.467311539105;1011.13931978215;1059.18460904213;-156.178125211853;105.408473684452;3427;0;-1071;14505;5041;1399;-1105;-399;678185;500;13:30:14.869048
337.706737988046;626.76263182587;706.479667019448;611.06917243154;928.982648223813;362.52171053749;-165.181201025087;123.991948317271;3427;0;-971;14468;5214;1951;-1652;230;678186;500;13:30:14.869069
297.293610635301;528.70637230447;780.685902345926;993.91392232143;1595.11269133756;650.40324056556;-102.51563552476;114.513595517143;3427;0;-971;14468;5214;1951;-1652;230;678187;500;13:30:14.869090
-8.95051091330242;-99.8003794185352;207.00600753061;367.261292339332;503.868187935936;102.898603974259;38.8710975829163;156.823920689407;3427;0;-971;14468;5214;1951;-1652;230;678188;500;13:30:14.869112
-144.420583326864;-85.4506607933436;217.848594088224;340.692565074336;581.958110459906;13.3878835331416;-138.514370247547;-13.0682280942565;3427;0;-971;14468;5214;1951;-1652;230;678189;500;13:30:14.869136
-217.574740239361;-276.982266416773;-48.7079782465007;373.07328794041;622.281416088372;244.980734080775;-79.1551232495694;-3.95144299429376;3427;0;-971;14468;5214;1951;-1652;230;678190;500;13:30:14.869160
-23.4828220837517;-97.4313226427184;-409.321063207928;-382.01204368574;-1124.67905240634;-449.518411067664;-48.3589345764485;59.7076936815865;3427;0;-971;14468;5214;1951;-1652;230;678191;500;13:30:14.869184
609.409579505358;930.528057991643;60.3883416270837;-396.255753014208;-1232.95446416564;-408.898606622242;-168.001114317332;142.444449341041;3427;0;-971;14468;5214;1951;-1652;230;678192;500;13:30:14.869209
470.183734303777;680.574941572384;214.180889210431;498.971802162821;1311.48569316795;789.938148516114;-282.167647337483;78.061711428687;3427;0;-971;14468;5214;1951;-1652;230;678193;500;13:30:14.869235
327.709339563997;687.121797058615;479.331575515796;451.860072743671;1137.00993510065;960.151844134089;-315.397716357198;9.51117999060079;3427;0;-971;14468;5214;1951;-1652;230;678194;500;13:30:14.869262
361.900628717383;890.321702879854;875.308049113955;312.900535091612;86.1966817874927;557.791907985928;-268.700738110347;6.40983062784653;3427;0;-971;14468;5214;1951;-1652;230;678195;500;13:30:14.869291
413.538178052695;662.644508438651;613.413992230198;393.294459405995;-108.800736019592;102.797404974233;-197.732704964001;135.515214076266;3427;0;-959;14546;5235;1906;-1804;627;678196;500;13:30:14.869327
342.283870482293;534.177899368457;456.128477710648;651.543339114985;1454.59088413152;851.93877388793;-217.080315951607;94.0661680558696;3427;0;-959;14546;5235;1906;-1804;627;678197;500;13:30:14.869358
299.730841661629;546.419081221102;343.520312473644;148.313279514085;248.706121575757;16.603720318526;-128.853202722559;121.699533374631;3427;0;-959;14546;5235;1906;-1804;627;678198;500;13:30:14.869390
-23.532748448808;-187.817495558644;-681.941675733891;-930.973669479077;-1713.27663300995;-1301.19862119853;-92.4038593674195;42.6521916638594;3427;0;-959;14546;5235;1906;-1804;627;678199;500;13:30:14.869422
-70.4720755639428;-762.821997745777;-1164.90435319801;-506.126728794712;-753.920870435395;-722.325468379306;4.21245917945635;146.445875157835;3427;0;-959;14546;5235;1906;-1804;627;678200;500;13:30:14.869456
-173.466005755705;-569.406367301941;-660.962598065729;324.845613553451;726.132208610856;67.9713373439154;-173.658142085944;-19.3738395125838;3427;0;-959;14546;5235;1906;-1804;627;678201;500;13:30:14.869496
-31.6991219015908;237.738954685396;226.260492858361;88.0821329535684;1228.7089964537;1042.17691262125;-248.932339239458;-98.653632756439;3427;0;-959;14546;5235;1906;-1804;627;678202;500;13:30:14.869532
-200.756447409716;73.842807848705;612.4783045816;671.131299416331;1567.94957664551;1302.59101925208;-143.388682733814;-130.23344831157;3427;0;-959;14546;5235;1906;-1804;627;678203;500;13:30:14.870103
-379.619693919667;-355.327278735116;211.770745233516;400.201290041412;514.628713883139;182.369673711248;-29.2199487645994;-100.795268312562;3427;0;-959;14546;5235;1906;-1804;627;678204;500;13:30:14.870149
148.331677831884;-57.6642252937891;275.169624792761;200.21365363829;-675.614340149157;-702.264277924318;17.9369579243357;228.390623626765;3427;0;-959;14546;5235;1906;-1804;627;678205;500;13:30:14.870198
302.991888728458;186.596612285124;486.827936757472;1058.07412194367;124.600262119959;-215.384867765475;-53.7515335491044;199.683064042241;3427;0;-953;14804;5077;980;-2125;804;678206;500;13:30:14.870247
283.790736691764;132.657197711756;-161.779041594011;-547.385549182189;-722.876832517679;-754.160755361081;4.64433342491975;165.363687840989;3427;0;-953;14804;5077;980;-2125;804;678207;500;13:30:14.870296
-207.211251091445;-631.142425098689;-347.144186535967;-579.549610929709;-626.614665206318;-127.470754929818;57.3420494211023;61.9041589306435;3427;0;-953;14804;5077;980;-2125;804;678208;500;13:30:14.900117
-784.491966638132;-910.368369344622;-353.294067126699;-75.6600320863654;607.303216501547;798.465851634392;-111.232238122437;-304.602324429783;3427;0;-953;14804;5077;980;-2125;804;678209;500;13:30:14.900143
-26.8878951391671;553.978061936679;543.962079329533;774.719959309499;1966.90029357621;995.32338474167;-246.890900938248;-241.196581202443;3427;0;-953;14804;5077;980;-2125;804;678210;500;13:30:14.900163
144.883561955387;338.472478201729;184.828019128996;665.422463518829;1720.44149418839;1053.54030679364;-203.958958375093;-137.829577776254;3427;0;-953;14804;5077;980;-2125;804;678211;500;13:30:14.900185
-252.924842497654;-841.270318312803;-1201.33712697355;-715.52523399613;114.56678401219;110.28639038757;20.3004284181516;2.01436250866391;3427;0;-953;14804;5077;980;-2125;804;678212;500;13:30:14.900208
-169.75109459227;-507.678299079882;-978.163414787501;-1258.36539996101;-1152.26598254978;-88.8016548081068;109.590251611662;78.4996077667456;3427;0;-953;14804;5077;980;-2125;804;678213;500;13:30:14.900231
317.839135764516;567.077508097165;111.78971276083;-401.14502109203;-1070.61979680639;301.90401171532;2.98646890610689;69.5582052206155;3427;0;-953;14804;5077;980;-2125;804;678214;500;13:30:14.900255
628.403595120617;1107.66665478167;1310.35810292128;1872.4059345721;2025.07501994577;1812.63955834555;-121.167360877851;96.5005985146854;3427;0;-953;14804;5077;980;-2125;804;678215;500;13:30:14.900280
558.435286493943;1172.41331907338;1607.48589162529;2431.10428935566;2314.44850548494;1531.59482795454;-47.0042623954359;120.121515183127;3427;0;-937;15112;4643;-182;-2167;307;678216;500;13:30:14.900305
63.0016675539955;432.36470236571;690.457167498884;525.195791039674;939.567512559355;665.701850347803;264.7336514208;126.549058641656;3427;0;-937;15112;4643;-182;-2167;307;678217;500;13:30:14.900331
-451.091191645421;-376.965235150652;95.8956353270914;117.786819151719;794.189393107488;652.298974877689;162.15103728004;-105.607735761791;3427;0;-937;15112;4643;-182;-2167;307;678218;500;13:30:14.900359
-371.442400827364;-56.2215559320757;202.390024522785;28.4909563116962;383.277823535755;61.6712929339847;-188.587220741087;-297.098894913448;3427;0;-937;15112;4643;-182;-2167;307;678219;500;13:30:14.900387
-381.217096705426;-638.821444955654;-735.887003176846;-759.288293919846;-568.084098326013;-383.45242042793;-112.595953333657;-188.063206388499;3427;0;-937;15112;4643;-182;-2167;307;678220;500;13:30:14.900417
-377.936070428696;-1545.03837740736;-1760.7990029389;-1348.38831329418;-1836.47331042954;-1246.33837823488;-87.2365482186433;-34.6694295620546;3427;0;-937;15112;4643;-182;-2167;307;678221;500;13:30:14.900447
-161.025739836216;-1275.2073770985;-1443.21047962585;-890.620246612933;-1499.95075082252;-556.105645244592;83.8902986106114;155.566257647239;3427;0;-937;15112;4643;-182;-2167;307;678222;500;13:30:14.900480
124.731901930383;-31.8433577314718;-507.446155566024;-108.610002081929;1054.44490059646;1262.37514283275;9.40901366074104;26.4151485621696;3427;0;-937;15112;4643;-182;-2167;307;678223;500;13:30:14.900513
676.221400523471;1748.51792985888;1713.49131000729;1325.47391837128;2716.31606001584;1823.8646564699;-344.378981975664;-95.1617026941385;3427;0;-937;15112;4643;-182;-2167;307;678224;500;13:30:14.931329
732.868042094051;1341.20463653293;1229.4743966182;451.012074672471;143.843272040715;444.440573891392;20.7681505657965;222.031772846589;3427;0;-937;15112;4643;-182;-2167;307;678225;500;13:30:14.931357
333.642742580501;361.558594146394;86.6373063448118;-608.315353510843;-1770.4504127625;-1351.04831602226;261.111274980241;359.362389559858;3427;0;-908;15271;4139;-714;-1472;-55;678226;500;13:30:14.931377
250.43239487239;257.697532510036;128.701484105783;-49.4899793438381;-428.112627672555;-977.570486921468;177.462744349032;266.402302835253;3427;0;-908;15271;4139;-714;-1472;-55;678227;500;13:30:14.931398
203.032458306581;97.4860755034024;144.397919314681;319.509507427923;557.617845933448;-187.369809297496;125.657974423841;254.092336337664;3427;0;-908;15271;4139;-714;-1472;-55;678228;500;13:30:14.931426
-126.007464841648;-281.340187444235;-255.493269629544;-567.238107669342;-923.536496921181;-1021.86737286835;-14.941961534787;60.0705569057027;3427;0;-908;15271;4139;-714;-1472;-55;678229;500;13:30:14.931449
-82.253581780853;-112.83922818664;-126.676374587347;-267.288071215706;-978.019733330235;-783.589014337049;-52.4234033724642;-58.9871907462366;3427;0;-908;15271;4139;-714;-1472;-55;678230;500;13:30:14.931473
-1014.9017090633;-1816.66855055525;-1541.75737842976;-483.846352391527;907.014768135617;1155.02563036361;-17.8849947318085;-385.242570584989;3427;0;-908;15271;4139;-714;-1472;-55;678231;500;13:30:14.931497
-2077.9689911837;-3696.90498875966;-2814.88832731836;-880.530624890089;600.119322730548;888.112797191134;-77.1893443100853;-673.621243035537;3427;0;-908;15271;4139;-714;-1472;-55;678232;500;13:30:14.931522
-1889.47148830214;-2954.86980606569;-2021.91163186252;-610.391606631601;-645.038682729617;-22.4305453969864;74.9241279863054;-564.848739009933;3427;0;-908;15271;4139;-714;-1472;-55;678233;500;13:30:14.931551
-491.877067230496;-86.4243495224509;408.873163892305;509.032217362575;510.369004033622;765.778880611062;44.2732715664315;-196.05713546148;3427;0;-908;15271;4139;-714;-1472;-55;678234;500;13:30:14.931579
-129.312453868421;239.97573548113;792.975502285524;185.44975224926;710.250412288122;917.061339910142;-381.507578474528;-232.3429959286;3427;0;-908;15271;4139;-714;-1472;-55;678235;500;13:30:14.931608
-271.124789419613;-470.212005764828;182.478833627421;72.6000789829122;45.0361014796072;508.926969562541;-346.820588486735;-125.067145437817;3427;0;-1012;15227;3899;-284;-1036;574;678236;500;13:30:14.931638
335.147895283124;418.481447750237;471.982940618414;284.124345304997;-141.830905991519;144.625448645442;-57.1603633434279;191.548180850921;3427;0;-1012;15227;3899;-284;-1036;574;678237;500;13:30:14.931669
1387.97845399435;1974.78934394044;487.55426619167;-1146.6853742839;-2835.56814238019;-2249.33104661328;146.403936867486;563.826932303724;3427;0;-1012;15227;3899;-284;-1036;574;678238;500;13:30:14.963171
899.225218067673;1173.29986912222;670.855133381789;-210.366201073222;-1488.77021591083;-1368.72238398367;134.758714196098;396.79911350552;3427;0;-1012;15227;3899;-284;-1036;574;678239;500;13:30:14.963199
-179.707598825073;-481.792292820988;81.6872859458672;308.820153049339;769.426565731148;660.644997251686;189.834628929384;12.2236139938468;3427;0;-1012;15227;3899;-284;-1036;574;678240;500;13:30:14.963220
-82.476694123121;-438.753331924556;-391.807996714255;-57.9545741418551;163.24131321779;181.272122782073;281.977676339273;81.6234648433747;3427;0;-1012;15227;3899;-284;-1036;574;678241;500;13:30:14.963241
738.97802777894;970.166513329721;770.368916604668;646.142948874563;212.542166110972;-534.595630884985;409.727607338806;473.121001090854;3427;0;-1012;15227;3899;-284;-1036;574;678242;500;13:30:14.963263
460.005906734179;699.910173264216;792.088010250824;497.731884520821;-97.5233867302595;-60.9322000539396;255.62969437713;335.01298761426;3427;0;-1012;15227;3899;-284;-1036;574;678243;500;13:30:14.963287
257.042972300755;761.9313068958;696.242743644398;303.45480325821;630.776807795366;1072.6286024201;-5.86599034874234;43.5920800998574;3427;0;-1012;15227;3899;-284;-1036;574;678244;500;13:30:14.963311
225.541386757541;880.785323738703;749.635256762267;653.183637459442;2029.67982551892;1963.42997039977;26.0779810520471;-2.71097836236004;3427;0;-1012;15227;3899;-284;-1036;574;678245;500;13:30:14.963335
404.104804085917;694.034196096123;152.421537195449;-98.576398981153;851.143543052778;1810.52775341365;-221.620685898175;-57.3794224865269;3427;0;-1132;15317;3804;699;-825;1538;678246;500;13:30:14.963360
136.217911998683;128.983130630804;-339.953126256936;-325.190401165339;1220.64173295663;2343.16136262089;-335.042931742559;-205.768822094426;3427;0;-1132;15317;3804;699;-825;1538;678247;500;13:30:14.963386
-143.23519369078;-204.43007701484;-705.922464227304;-778.517120079458;108.770834800933;1114.09568047011;-74.3807812734158;-180.378981798538;3427;0;-1132;15317;3804;699;-825;1538;678248;500;13:30:14.963415
101.530131960084;268.281588876853;-14.916636523325;-150.918757175852;-1036.91930270358;-468.345222027856;249.610184660007;27.5501866276609;3427;1;-1132;15317;3804;699;-825;1538;678249;500;13:30:14.963444
236.904035912827;363.418480453431;178.537446939852;534.435442380258;-70.4631859201181;-1201.22836186597;665.938804524194;259.712840662571;3427;0;-1132;15317;3804;699;-825;1538;678250;500;13:30:14.963474
80.4042064462847;37.9921316633699;-652.002470019623;-1104.21873952574;-1535.8454302754;-1988.51202076452;502.65690987272;178.917259872891;3427;0;-1132;15317;3804;699;-825;1538;678251;500;13:30:14.963505
701.971409362595;1146.62905589421;895.952213510755;-56.1451062180276;-690.295316673291;-1268.31056293158;144.632567499764;215.391935623134;3427;0;-1132;15317;3804;699;-825;1538;678252;500;13:30:14.963539
616.151669389452;890.875337950536;541.391960207839;-363.70865408078;-1626.13307355583;-1164.23207363661;170.684575076273;195.752880138811;3427;0;-1132;15317;3804;699;-825;1538;678253;500;13:30:14.963576
441.942293435481;472.324848404736;32.23874885228;-909.891225396248;-2114.95958565694;-255.479390743305;264.97304676153;204.176289835013;3427;0;-1132;15317;3804;699;-825;1538;678254;500;13:30:14.995262
82.0730286939943;150.407271743752;209.164944150136;338.532089187531;684.745217042248;673.734851418529;42.0623482567025;22.6809598805849;3427;0;-1132;15317;3804;699;-825;1538;678255;500;13:30:14.995289
-381.623815936444;-429.845173045411;-183.555615442456;177.126000390825;1462.96211927742;610.491218938958;56.4577913521207;-123.755150723387;3427;0;-1210;15625;3608;144;-552;1451;678256;500;13:30:14.995313
-535.428762150201;-795.141690765857;-356.715551777976;89.2783057590132;1131.32625891088;501.30733608373;20.9839377570315;-214.695438557188;3427;0;-1210;15625;3608;144;-552;1451;678257;500;13:30:14.995336
-506.430190396757;-1059.45186551183;-419.380758055835;563.99078313919;919.061993642681;680.659930053167;70.4206859613769;-115.679863990401;3427;0;-1210;15625;3608;144;-552;1451;678258;500;13:30:14.995364
-830.55380879264;-1378.05710103468;-696.889901787858;3.23186219806666;476.875761553703;989.914351858315;-121.249285666505;-439.244662779034;3427;0;-1210;15625;3608;144;-552;1451;678259;500;13:30:14.995392
-1340.40278339293;-1691.63584016683;-870.537845395738;-765.173722560663;-583.879898403044;757.651285209577;-32.2720011231722;-590.808487355243;3427;0;-1210;15625;3608;144;-552;1451;678260;500;13:30:14.995416
-945.485630099982;-961.773688595626;-387.104352910072;-504.369890860165;-665.444736858713;78.091890497366;199.688627264637;-345.93915796373;3427;0;-1210;15625;3608;144;-552;1451;678261;500;13:30:14.995441
-867.499371824408;-204.219583497616;553.393059698516;1181.21025915572;1913.30014262421;771.429292723886;287.632766059076;-386.338085499592;3427;0;-1210;15625;3608;144;-552;1451;678262;500;13:30:14.995466
-2573.23378415534;-978.536969866371;435.709162183688;976.458086309169;1473.55947495153;672.012339649023;436.079658807605;-668.691453754203;3427;0;-1210;15625;3608;144;-552;1451;678263;500;13:30:14.995500
-3642.43738386247;-2098.90759442176;-287.701189815882;492.000571219542;602.997784768842;97.8060559777077;382.912662356393;-915.692727616173;3427;0;-1210;15625;3608;144;-552;1451;678264;500;13:30:14.995529
-2289.30507517536;-1137.21887502365;22.4859813414514;603.858864814189;550.205838999507;-145.272190028918;96.8642080309219;-849.524729299708;3427;0;-1210;15625;3608;144;-552;1451;678265;500;13:30:14.995557
-213.633400661463;328.25937800447;-132.299566499889;-584.529786155996;-1211.19203646286;-1334.33691503084;-246.234446423827;-537.700619687093;3427;0;-1295;15824;3614;-846;-516;615;678266;500;13:30:14.995587
2072.63764469672;1432.58165025362;54.7142384465551;-572.515803889488;-662.942430662224;-984.09366652125;-362.439718056761;325.754750165157;3427;0;-1295;15824;3614;-846;-516;615;678267;500;13:30:14.995618
1418.6002248608;741.2700572178;-139.226831322536;-2.14398024082766;813.601987350994;321.773319289787;-391.717439384083;205.537052791915;3427;0;-1295;15824;3614;-846;-516;615;678268;500;13:30:14.995651
238.039157361665;-259.436448321794;-960.775678005302;-454.503473709221;90.4025743390666;-183.385537958238;-356.020669704711;-181.498946047621;3427;0;-1295;15824;3614;-846;-516;615;678269;500;13:30:14.995684
-1612.4797952433;-1620.29098266817;-1510.67220190272;-473.885249763698;281.533663089125;-341.373891327763;-200.512407896866;-676.981662348844;3427;0;-1295;15824;3614;-846;-516;615;678270;500;13:30:15.043192
-3790.61896696486;-2953.15662757703;-1285.47657375352;207.584728817485;-119.024648579682;-271.795515615842;102.123702315264;-1289.47485659004;3427;0;-1295;15824;3614;-846;-516;615;678271;500;13:30:15.043253
-5378.94881065231;-4312.98665807361;-1267.75445125764;663.899796627345;437.432747201325;645.583963215235;448.676360625657;-1614.03230370837;3427;0;-1295;15824;3614;-846;-516;615;678272;500;13:30:15.043304
-6563.64677934005;-6015.40231593908;-2422.82451305026;-474.509865212021;1698.4463751775;1735.3251018303;359.597842267016;-1942.42338304466;3427;0;-1295;15824;3614;-846;-516;615;678273;500;13:30:15.043354
-3216.71610308482;-3012.79629455029;-1088.94697423419;526.938641427027;2175.48017834921;1663.61271095416;83.7995663783513;-1090.04177234997;3427;0;-1295;15824;3614;-846;-516;615;678274;500;13:30:15.043410
164.069602937525;156.149892598041;112.047741772491;23.2536497028195;287.317851321568;613.890500075999;181.115739492467;-223.418132876279;3427;0;-1295;15824;3614;-846;-516;615;678275;500;13:30:15.043466
2496.95897668108;2089.04618737719;1186.74066665;-423.461263953475;-1901.23799385945;-799.376887348364;182.803643208754;493.267548100441;3427;0;-1295;15769;3944;-1597;-914;245;678276;500;13:30:15.043524
3129.13643361506;1931.72433916037;357.861032668501;-1899.07094369095;-3919.28948314922;-1678.21621246007;-81.8607059383066;853.172834031982;3427;0;-1295;15769;3944;-1597;-914;245;678277;500;13:30:15.043593
2407.76414496961;1402.642712584;-276.83867521456;-1702.58515477119;-2308.66212817797;-1179.61377204303;-279.616999546357;640.127342326217;3427;0;-1295;15769;3944;-1597;-914;245;678278;500;13:30:15.043659
1788.71791669464;1812.24714681681;275.975330492714;30.8267363656778;1544.70284537892;329.41093056486;-499.736434254039;126.624596880516;3427;0;-1295;15769;3944;-1597;-914;245;678279;500;13:30:15.043727
1637.4365822644;1874.81669466174;648.963211931521;439.789501133346;1301.36472689849;640.995185719104;-110.902219911455;196.896004596143;3427;0;-1295;15769;3944;-1597;-914;245;678280;500;13:30:15.043795
1057.68804409893;859.310365556506;-370.001980221947;-1088.21481064431;-2200.46097185966;-2170.7062875207;100.168799020059;272.24462835514;3427;0;-1295;15769;3944;-1597;-914;245;678281;500;13:30:15.043866
731.586886615609;355.312421926297;-743.211617370369;-1258.51874069663;-1875.27806962904;-1947.09054598317;-82.9359639422037;118.079986750963;3427;0;-1295;15769;3944;-1597;-914;245;678282;500;13:30:15.043937
780.196684148133;721.159893814824;150.326254638028;-15.5268542364065;533.778509102936;474.957118190825;-216.051071502792;-35.157852536533;3427;0;-1295;15769;3944;-1597;-914;245;678283;500;13:30:15.044012
899.718574641243;670.999474349897;-147.870695645106;-770.580451523711;-1528.32185356496;-177.104812808568;-133.839934718213;107.668193549966;3427;0;-1295;15769;3944;-1597;-914;245;678284;500;13:30:15.044089
527.795683309872;211.021911493153;-713.630747627933;-925.889550260006;-957.020871328714;43.5423028527293;-280.218083456217;-23.5800516463351;3427;0;-1295;15769;3944;-1597;-914;245;678285;500;13:30:15.044175
316.514759517537;266.572030614945;-144.395662786555;437.233970672678;2621.21581547611;1835.52641438658;-282.651576046657;-148.219635223388;3427;0;-1095;15559;4268;-2632;-1307;503;678286;500;13:30:15.044260
123.759797986044;190.243482573307;592.635923948721;516.291383629054;1346.92077311745;1648.37410640542;-10.7696175413439;-144.097402780666;3427;0;-1095;15559;4268;-2632;-1307;503;678287;500;13:30:15.044347
-106.34277979107;-802.367167468416;-351.040903152432;-679.641443901754;-1401.13961065566;-274.567987771938;248.773832606676;73.6344552331138;3427;0;-1095;15559;4268;-2632;-1307;503;678288;500;13:30:15.044437
-481.635900441761;-1443.6833096873;-1077.2140072427;-715.817293896835;-361.448030072526;-970.059201091644;-105.093825912452;-165.497622658499;3427;0;-1095;15559;4268;-2632;-1307;503;678289;500;13:30:15.044537
-330.506734060473;-796.988961810246;-655.443291269708;-363.952254409844;-1171.16888037734;-852.886444497271;-235.914142487221;-361.887117031729;3427;0;-1095;15559;4268;-2632;-1307;503;678290;500;13:30:15.044638
66.1909476823639;333.56525578897;299.696623453638;441.650069337658;-159.132663742843;-174.683066345402;-259.754436865798;-350.104456409113;3427;0;-1095;15559;4268;-2632;-1307;503;678291;500;13:30:15.044741
-79.6845958457852;371.773510413943;542.306033274857;922.157274823316;438.798167740693;-270.126755458419;80.4243111069663;-248.024288934306;3427;0;-1095;15559;4268;-2632;-1307;503;678292;500;13:30:15.044844
829.635711331415;1196.53709505207;778.883264737669;508.218638611695;298.841413300746;-884.097267088946;290.146033678146;287.057973833056;3427;0;-1095;15559;4268;-2632;-1307;503;678293;500;13:30:15.044944
1027.97065667415;1262.66328552773;702.42676492047;433.328007284814;1.62128553434741;-238.245625463431;91.7889230729197;265.905268518836;3427;0;-1095;15559;4268;-2632;-1307;503;678294;500;13:30:15.090554
770.640197328117;1119.22744846845;1049.23965182714;1405.77042913451;278.523091568641;-197.691433367901;-92.1697843119036;65.1382059628377;3427;0;-1095;15559;4268;-2632;-1307;503;678295;500;13:30:15.090592
-247.697886761773;-3.28867409087252;-168.501222295803;-422.438051060977;623.505801435647;563.823879766045;13.3650432295981;-271.255000961828;3427;0;-582;15047;4537;-705;-1362;583;678296;500;13:30:15.090620
208.491351822828;255.607997989049;138.47204781638;-49.5077658184164;161.208972474822;257.467615362373;3.30062382412143;-32.0326358192833;3427;0;-582;15047;4537;-705;-1362;583;678297;500;13:30:15.090652
413.520268448279;313.506076124497;583.712174873101;952.777499829157;408.251266833046;-413.752896190039;-29.4944067894248;121.722677760641;3427;0;-582;15047;4537;-705;-1362;583;678298;500;13:30:15.090683
356.604817730346;100.369845759706;313.834477455472;692.376203588414;994.041243936779;-338.221605445491;145.814230735879;209.953384586377;3427;0;-582;15047;4537;-705;-1362;583;678299;500;13:30:15.090716
291.44241044778;164.165258818422;160.601729102898;326.88124557698;663.199134496361;-172.195609499817;173.840967293829;159.937058358337;3427;0;-582;15047;4537;-705;-1362;583;678300;500;13:30:15.090750
259.875933328352;176.47650516429;59.9572840764886;150.774508535309;60.2010392774246;-591.565227676416;-110.525440984813;-80.2602330130758;3427;0;-582;15047;4537;-705;-1362;583;678301;500;13:30:15.090785
122.362605552044;-340.045933358371;-396.187597288284;-318.281598532136;85.8221417101449;-61.6156577205984;-41.5377047937945;-48.1495921196183;3427;0;-582;15047;4537;-705;-1362;583;678302;500;13:30:15.090821
-662.354600844294;-1551.68966270285;-841.651946595986;-344.219365227764;17.7077750680037;132.788393460447;30.5651393280714;-200.28111600515;3427;0;-582;15047;4537;-705;-1362;583;678303;500;13:30:15.090859
-1102.3539144487;-2106.18162492709;-805.515927622328;-38.9022102174931;445.328961202933;541.396240248461;114.685078249662;-252.124108968186;3427;0;-582;15047;4537;-705;-1362;583;678304;500;13:30:15.090898
-894.855249702698;-1754.32617628213;-685.331133347237;272.541186550603;867.592617692659;755.074684374616;91.419190878165;-207.91016159032;3427;0;-582;15047;4537;-705;-1362;583;678305;500;13:30:15.090940
-38.0151258795813;-23.5009905478219;27.6399761346402;437.978922397422;832.394525104522;462.225762825576;-86.5841622990556;-149.33399937558;3427;0;-127;14435;4686;1351;-842;-516;678306;500;13:30:15.090981
695.833090133703;1103.37555514532;644.256870119134;487.052695891674;583.947873725207;142.209618790192;-44.730808669934;70.4971761653433;3427;0;-127;14435;4686;1351;-842;-516;678307;500;13:30:15.091025
871.9418929003;1356.54604444047;722.487771564163;539.469521853636;680.429591506487;-109.222290571313;-2.40461125277216;132.555953097646;3427;0;-127;14435;4686;1351;-842;-516;678308;500;13:30:15.092063
504.225549572904;749.89247229055;276.009105414152;21.7939931578294;83.0386111943808;-340.616390479961;6.59949112671893;58.6850564584602;3427;0;-127;14435;4686;1351;-842;-516;678309;500;13:30:15.092115
-277.285781697312;251.15363846824;103.406653901446;-232.0374626923;-286.283838729258;-309.739739396377;108.903043212369;-101.71532825625;3427;0;-127;14435;4686;1351;-842;-516;678310;500;13:30:15.092164
-1136.47653030488;-353.660214801552;63.1363374049542;-87.1789932285319;-298.203093836783;-123.218353008386;302.343177960895;-342.589611739502;3427;0;-127;14435;4686;1351;-842;-516;678311;500;13:30:15.094548
-931.522212826909;-385.465750684729;139.634747327422;160.217288534419;26.9181844166305;123.584636607906;232.994279444159;-365.793262519874;3427;0;-127;14435;4686;1351;-842;-516;678312;500;13:30:15.094603
68.8874786873057;142.620173265343;74.0604086760432;-63.536654456635;-195.600865927117;254.013669340755;133.696122398484;-84.6064379194286;3427;0;-127;14435;4686;1351;-842;-516;678313;500;13:30:15.094664
1822.9799078244;1493.88400067319;636.355947733624;102.07339804183;-53.6098177767126;282.435587482294;124.076157109987;627.339418185526;3427;0;-127;14435;4686;1351;-842;-516;678314;500;13:30:15.094723
1351.96051705867;1223.31463258644;606.288114428171;190.086619402136;184.991055873077;407.878632616601;171.214994467038;563.197879525949;3427;0;-127;14435;4686;1351;-842;-516;678315;500;13:30:15.094785
875.838885172998;857.695212962688;448.378707145923;185.568631894042;143.349854029948;294.233804333606;169.064885500935;406.423083652277;3427;0;-121;14230;4809;664;-374;-712;678316;500;13:30:15.094851
436.434750904009;286.927470825147;74.7932190209394;26.0753644342476;116.135484275204;149.2029822513;131.160127940064;287.364985371009;3427;0;-121;14230;4809;664;-374;-712;678317;500;13:30:15.094912
225.099863113806;197.293095078203;192.805743819801;360.477206371375;476.817455608747;43.7397848339751;32.1113033884321;159.844927163911;3427;0;-121;14230;4809;664;-374;-712;678318;500;13:30:15.135052
-37.2670417168993;-33.3354003867134;148.350087454775;378.652622658818;544.790166104009;-86.2455258732662;-121.351668198244;-2.85756619973108;3427;0;-121;14230;4809;664;-374;-712;678319;500;13:30:15.135072
-158.225359619042;-126.926791992388;366.792783298064;775.203544791555;1192.24049940586;273.325204044115;-291.774639499432;-139.678236462991;3427;0;-121;14230;4809;664;-374;-712;678320;500;13:30:15.135087
36.3568605829205;-156.738435493317;-103.19171782909;127.313387387345;551.61360445738;135.496799902059;-120.19672411104;2.47037768224254;3427;0;-121;14230;4809;664;-374;-712;678321;500;13:30:15.135102
54.6021467907121;-508.145441828761;-901.201836205786;-573.109548809734;-99.9160739533545;169.314870779286;105.88680973748;118.00011088734;3427;0;-121;14230;4809;664;-374;-712;678322;500;13:30:15.135118
-469.968021685811;-1826.03431852616;-2122.48456587095;-1199.17598730495;-1199.43518607342;313.009821999352;406.655107622151;143.639080757042;3427;0;-121;14230;4809;664;-374;-712;678323;500;13:30:15.135135
-495.070857318438;-1729.19297555974;-2198.5433417313;-2184.06954891008;-3433.94733889762;-511.023327801493;517.820955527131;187.833419746719;3427;0;-121;14230;4809;664;-374;-712;678324;500;13:30:15.135152
272.17499413839;500.08013104659;306.199285441777;141.665654630313;366.775684695487;416.297434295644;163.498756199609;114.206437538727;3427;0;-121;14230;4809;664;-374;-712;678325;500;13:30:15.135169
753.56746996229;1692.8423722157;1966.76665532833;1512.18039337418;2179.23507070207;1368.79025712621;-146.655292632815;38.5131768478313;3427;0;-193;14625;4654;742;-353;-78;678326;500;13:30:15.135188
750.926876496262;1458.52973070997;1864.48276256875;1620.35696998402;1529.32816940962;599.097469059168;30.0302534403163;222.13768208609;3427;0;-193;14625;4654;742;-353;-78;678327;500;13:30:15.135207
497.865735663916;502.644886018941;464.576638889615;438.230162422929;446.253845477331;-463.105902698124;333.695219504414;373.648013370577;3427;0;-193;14625;4654;742;-353;-78;678328;500;13:30:15.135228
333.407425977639;390.442880385206;88.7990530282259;-97.1290110845002;9.7036370007263;-881.991354829632;-33.2487744225073;74.0783329238184;3427;0;-193;14625;4654;742;-353;-78;678329;500;13:30:15.135250
97.4525380517007;31.1901461319067;-162.046071981429;-410.155959658558;-375.683060647367;-568.18896000192;-82.5790534736589;-53.8101587316487;3427;0;-193;14625;4654;742;-353;-78;678330;500;13:30:15.135274
-486.352046392596;-696.232381252688;-571.732973135076;-611.933193101722;-789.036005113245;-585.225509488024;-106.446407915326;-261.586685116752;3427;0;-193;14625;4654;742;-353;-78;678331;500;13:30:15.135298
-86.9882543586718;-178.323297195486;-125.63453056023;-325.224729835056;-1156.45251753958;-66.3971054353751;254.568275236699;64.895987465512;3427;0;-193;14625;4654;742;-353;-78;678332;500;13:30:15.135327
405.77264685207;361.943866834976;206.579697076813;-293.501681283175;-1127.69939299015;-391.773248495883;232.447350502829;242.212098734337;3427;0;-193;14625;4654;742;-353;-78;678333;500;13:30:15.135352
401.453454844363;320.070973469294;380.606513722334;419.546677711158;53.4845934394107;-55.2107441942208;162.89372726786;217.56141282199;3427;0;-193;14625;4654;742;-353;-78;678334;500;13:30:15.135377
433.941062755068;445.657799470937;648.838571150089;933.86861454157;-474.421344022296;-843.79481083795;65.3836447993526;184.266308525926;3427;0;-193;14625;4654;742;-353;-78;678335;500;13:30:15.135404
174.838286925049;11.1734261255478;-439.786894210381;-1100.27183130325;-1732.08226515618;-1067.98765002436;252.306375725952;179.204654398607;3427;0;-51;15141;4323;1362;454;105;678336;500;13:30:15.135432
351.243913608661;276.743028664612;85.1309684740845;-159.528163819719;-445.879248931567;-289.630152008263;221.242007196823;233.823955573142;3427;0;-51;15141;4323;1362;454;105;678337;500;13:30:15.135463
324.696089290897;459.485684964689;573.67802045797;796.305069375434;1849.82554202023;858.629795159213;162.731989524153;152.60251312342;3427;0;-51;15141;4323;1362;454;105;678338;500;13:30:15.135494
163.317557141912;124.173937429441;201.479875514633;383.707112328382;789.726857303671;442.272591319634;77.121354627714;77.3580943716224;3427;0;-51;15141;4323;1362;454;105;678339;500;13:30:15.135526
-369.700716445863;-854.877941431594;-370.789962072275;141.208435295877;500.070182153519;96.684686733759;73.0702333988156;-32.7245861949632;3427;0;-51;15141;4323;1362;454;105;678340;500;13:30:15.169824
-1080.88505500756;-1873.34485978074;-1499.35298771819;-943.945584368514;-297.76826367469;-200.866533349035;111.797925205436;-255.712111794273;3427;0;-51;15141;4323;1362;454;105;678341;500;13:30:15.169843
-1041.81111836268;-1530.50614541862;-1287.11261023663;-351.980085860356;197.294686290727;172.109648061567;94.3878146852367;-333.799258157727;3427;0;-51;15141;4323;1362;454;105;678342;500;13:30:15.169859
140.617709599639;8.55680914758705;-207.944163191481;542.655699029448;1271.48419510506;943.882405444863;91.103863490629;62.1250586860115;3427;0;-51;15141;4323;1362;454;105;678343;500;13:30:15.169874
545.077913800371;608.190824170713;628.200584462844;564.520115013729;733.271766882128;668.509253613884;42.1450186803704;213.609851262998;3427;0;-51;15141;4323;1362;454;105;678344;500;13:30:15.169890
669.198185899848;990.63238908723;977.874589419109;291.940446132096;-259.34659990127;338.911402523634;-5.21034378244076;229.038800213253;3427;0;-51;15141;4323;1362;454;105;678345;500;13:30:15.169907
80.2198757906444;363.581737775588;413.865717048058;227.464984717692;336.522451798839;366.196144878515;21.5630883333506;-29.0141373142833;3427;0;-148;15534;4258;814;779;186;678346;500;13:30:15.169924
-21.4270703538205;442.950955862761;727.405592985684;954.807796205336;1427.77281002572;411.013226643088;-45.4108177197049;-96.0253697843291;3427;0;-148;15534;4258;814;779;186;678347;500;13:30:15.169941
243.894804264128;452.743153990712;616.646824135561;670.340223033039;854.727240295993;320.105021733441;106.083851409901;118.040440361248;3427;0;-148;15534;4258;814;779;186;678348;500;13:30:15.169959
338.94444232565;295.445931983064;86.8923230404034;68.4186842482013;115.892378321849;-110.535469567869;-18.5914533945615;106.829236560734;3427;0;-148;15534;4258;814;779;186;678349;500;13:30:15.169977
820.354868732422;818.830128195346;419.36544121441;-45.0156485342886;-111.878718620952;-135.314110582578;-44.3219700289774;275.621921798331;3427;0;-148;15534;4258;814;779;186;678350;500;13:30:15.169998
224.462852641562;-109.260820456664;434.6401627335;881.433194904734;1412.19239116661;795.212162941811;66.4138106488972;196.84060932498;3427;0;-148;15534;4258;814;779;186;678351;500;13:30:15.170018
-616.408129226562;-1289.10040920612;-276.721445815987;512.357933896419;990.30172869013;1019.45834012725;37.6334038806963;-99.588799791527;3427;0;-148;15534;4258;814;779;186;678352;500;13:30:15.170040
-870.381436420837;-1212.96669069573;-565.790386450477;-52.8652289683232;447.434934226534;606.854048778303;-288.912958473025;-449.949827447883;3427;0;-148;15534;4258;814;779;186;678353;500;13:30:15.170062
-288.389640535461;214.752556488733;-247.029549806262;-412.278653921647;305.847084644192;541.227199841291;-264.552680843684;-462.019205614226;3427;0;-148;15534;4258;814;779;186;678354;500;13:30:15.170473
-10.7844799487502;290.033016902278;-274.088371480815;-611.169446566695;-390.482556074247;-157.61147210747;-18.8808109005913;-134.058510071598;3427;0;-148;15534;4258;814;779;186;678355;500;13:30:15.170503
105.348760593624;-73.8800996781792;91.7312460531248;143.462640967802;-161.867164990108;-557.543071937631;105.468085160537;185.836943893461;3427;0;-574;15879;4156;-686;717;-40;678356;500;13:30:15.170528
-12.509012884082;-287.165131363668;113.117745808908;391.79224691671;733.684659782506;220.162087322911;-96.6950371416169;56.5319754434749;3427;0;-574;15879;4156;-686;717;-40;678357;500;13:30:15.170558
-1021.27866732667;-878.380255913595;-171.841117198463;166.963395263592;669.990255580371;650.273028174764;110.112440105004;-197.366250517895;3427;0;-574;15879;4156;-686;717;-40;678358;500;13:30:15.201793
-1304.8948337477;-923.567445463385;-530.746931921691;-137.545324476552;193.666518776037;-16.14610744128;79.8088998732856;-427.217424932984;3427;0;-574;15879;4156;-686;717;-40;678359;500;13:30:15.201858
49.7945720385469;480.727963405312;256.664503691019;244.457697583275;-102.810969472193;-810.385724278982;-44.525242644595;-180.164522256469;3427;0;-574;15879;4156;-686;717;-40;678360;500;13:30:15.201907
531.949353252508;900.552787019638;396.247702152585;-42.1417725059728;-778.174382837751;-1578.77528231847;-205.067333948915;-131.957721908693;3427;0;-574;15879;4156;-686;717;-40;678361;500;13:30:15.201966
470.445463345968;465.446512392606;-56.2130254815565;-307.273152203037;-649.08267695579;-1724.36593330407;-336.765408986888;-184.716116944444;3427;0;-574;15879;4156;-686;717;-40;678362;500;13:30:15.202027
229.823090256716;352.760571692837;236.325934605557;670.120047803444;897.492106062098;-744.143781637889;-354.512320002425;-241.777159022866;3427;0;-574;15879;4156;-686;717;-40;678363;500;13:30:15.202088
1.14026742897113;9.92511076573282;-207.188560156501;-166.380562274397;-145.109555336501;96.6671975286445;-62.9686096231453;-117.254324568668;3427;0;-574;15879;4156;-686;717;-40;678364;500;13:30:15.202154
-617.216629430302;-968.602074248367;-1056.56735479669;-1184.22160354839;-1171.7044577635;267.126954213949;204.068152385589;-134.400134806521;3427;0;-574;15879;4156;-686;717;-40;678365;500;13:30:15.202219
-1034.04685448215;-1674.51005767495;-1161.91305029194;-733.467265307961;-893.563291174447;151.236123464303;173.613301320409;-261.632395430002;3427;0;-1006;16016;4151;-2113;188;175;678366;500;13:30:15.202303
-656.596663153643;-1491.0778879961;-1090.0045317671;-444.331259066123;-860.34079266421;-298.105912308209;104.775849049096;-144.791445329902;3427;0;-1006;16016;4151;-2113;188;175;678367;500;13:30:15.202375
-363.333946706523;-1112.12237990415;-1615.19899911259;-1847.16342964984;-2440.34962980775;-1238.69808783161;216.661992887617;4.38346934749279;3427;0;-1006;16016;4151;-2113;188;175;678368;500;13:30:15.202451
187.636081967241;155.522333882283;-692.839457386872;-1686.13559899331;-2842.81743800675;-2022.40875960316;-103.149716928601;-101.709959464148;3427;0;-1006;16016;4151;-2113;188;175;678369;500;13:30:15.202527
242.795162464521;504.015452683787;-79.1011365593877;-587.962271494238;-855.156699010986;-1071.10970564885;-316.607760503481;-200.512044148869;3427;0;-1006;16016;4151;-2113;188;175;678370;500;13:30:15.202603
247.568586747366;475.482022123178;-81.1966923248256;-738.706299062178;-1652.91113483056;-1036.95114698936;-204.420215435384;-78.454511464457;3427;0;-1006;16016;4151;-2113;188;175;678371;500;13:30:15.202684
354.62855557134;846.772262397921;694.840443174704;1149.64099214677;1750.9833007837;1211.88198399183;-210.887690020667;-136.79246430099;3427;0;-1006;16016;4151;-2113;188;175;678372;500;13:30:15.202766
69.7953776747745;148.096663077828;325.307305344148;1318.03693104221;2034.66957614801;1811.78435394692;66.9453095208155;-123.840550527442;3427;0;-1006;16016;4151;-2113;188;175;678373;500;13:30:15.202849
105.521471653861;18.6130939979339;592.39870408515;1599.55283037474;1311.04966090366;987.041973920073;6.4136565772933;-80.2393848376814;3427;0;-1006;16016;4151;-2113;188;175;678374;500;13:30:15.263087
242.159405130602;291.22551349469;278.7648829018;-65.2835213337385;740.507960322575;750.920443751034;57.9372440139414;65.1763118414674;3427;0;-1006;16016;4151;-2113;188;175;678375;500;13:30:15.263117
161.438584992517;408.378990709432;237.34822504851;-435.344396321336;-715.322125706181;-382.616031209473;111.796379757405;97.473942443612;3427;0;-1142;15786;4266;-2044;-232;227;678376;500;13:30:15.263139
225.812669341918;422.691333841416;224.264355406049;-395.318454444554;-1855.81385927086;-1268.45171450335;63.6164255524054;58.8084359619534;3427;0;-1142;15786;4266;-2044;-232;227;678377;500;13:30:15.263163
239.686688373797;335.446243490209;201.397613753099;-165.971301098034;-654.636738046742;-196.426511543803;32.9293251553318;62.3608141420409;3427;0;-1142;15786;4266;-2044;-232;227;678378;500;13:30:15.263187
280.209197290853;350.639614922344;88.3776153489016;235.417661644897;1797.59873597868;980.474941570894;-132.525345985137;-40.4644675868331;3427;0;-1142;15786;4266;-2044;-232;227;678379;500;13:30:15.263212
209.90883807154;211.598824648885;104.958793762955;193.542804102239;887.109324091929;319.116566498415;-6.7284815881867;16.9953070327174;3427;0;-1142;15786;4266;-2044;-232;227;678380;500;13:30:15.263238
60.9784399862692;148.817021011375;175.984836971154;224.726757830096;86.336023545533;-126.302427939605;-32.5579706678982;-90.2312688370002;3427;0;-1142;15786;4266;-2044;-232;227;678381;500;13:30:15.263265
33.1550199139165;-57.2798233248759;-38.0944207614521;-19.755244054104;-237.37999581336;-404.173509239685;54.2297012847848;-4.32224610273261;3427;0;-1142;15786;4266;-2044;-232;227;678382;500;13:30:15.263293
-164.252860677429;-583.768259953358;-535.697728140512;-274.102124051598;314.471293822135;24.0198909800965;125.025262246374;3.00191954802722;3427;0;-1142;15786;4266;-2044;-232;227;678383;500;13:30:15.263323
-151.496129830397;-271.893462848268;-28.3510251676198;183.279086102295;516.576357361017;699.276699543698;140.27579028625;-61.3152275950415;3427;0;-1142;15786;4266;-2044;-232;227;678384;500;13:30:15.263354
214.880916154798;239.815350490971;48.3314718190813;84.4059704837273;432.919612340105;1093.78710470989;108.624293992762;34.1726167724701;3427;0;-1142;15786;4266;-2044;-232;227;678385;500;13:30:15.263385
339.168918698299;499.669294233783;273.116416986217;129.863717892062;549.039829808753;502.500443845172;-67.7231622806867;0.273414930794388;3427;0;-908;15344;4282;-1213;19;-134;678386;500;13:30:15.263418
269.104749976308;310.066544957575;336.084167502937;379.460435688816;190.665189456544;-655.807396133896;65.2018349044374;57.228441100684;3427;0;-908;15344;4282;-1213;19;-134;678387;500;13:30:15.263451
-49.5253432713507;-211.079392715357;-0.239855495514348;77.3774001316924;299.844155048719;9.98721308354288;151.745747407957;-29.6294865568634;3427;0;-908;15344;4282;-1213;19;-134;678388;500;13:30:15.263486
-123.687897029915;-465.347544804332;-314.476480467827;-411.735596618877;-395.29904443858;-147.404845347162;195.465617670561;7.82295347144827;3427;0;-908;15344;4282;-1213;19;-134;678389;500;13:30:15.263658
-132.325961121882;-327.867388977786;296.426165142446;1046.06200116736;196.211806499457;-523.437310366426;19.0139256059192;-9.84865830210038;3427;0;-908;15344;4282;-1213;19;-134;678390;500;13:30:15.263705
-66.3199922341737;-102.65403331758;120.591252896236;500.108772178326;253.642747500446;-634.391887112055;-16.110535406624;-82.9489953489974;3427;0;-908;15344;4282;-1213;19;-134;678391;500;13:30:15.263745
73.3952784702415;42.2387148418929;26.447107633925;100.07817060771;269.602952635556;-90.0509422740433;58.5163544965908;-61.7210636606906;3427;0;-908;15344;4282;-1213;19;-134;678392;500;13:30:15.263786
297.818856193888;299.601232740795;73.5958058352116;-259.185978948663;694.776739663212;1113.3059081519;220.652440022095;105.324901841464;3427;0;-908;15344;4282;-1213;19;-134;678393;500;13:30:15.263828
419.059813329484;496.1008144191;467.964029864292;216.818357351614;380.235272912978;562.535782575491;333.055320459302;241.462052348652;3427;0;-908;15344;4282;-1213;19;-134;678394;500;13:30:15.263873
159.159215363266;30.2795511808945;357.534714826965;594.451524575532;682.748282129731;742.068800195819;362.554272107664;204.96531286661;3427;0;-908;15344;4282;-1213;19;-134;678395;500;13:30:15.263919
-16.0148385675275;-372.088521291851;-182.815490259789;-63.1693383818783;-120.607847601059;337.989154700073;433.407966092345;245.434760649689;3427;0;-711;14902;4366;-142;207;-74;678396;500;13:30:15.263965
-307.256528514292;-675.011397388647;-634.923529380816;-319.051942078426;57.9567865334102;7.51081852067728;337.404219492397;136.327262277831;3427;0;-711;14902;4366;-142;207;-74;678397;500;13:30:15.264011
-272.875394389412;-567.682715366129;-751.437048394117;-447.508326652227;-156.253024844744;-357.596961550764;181.967590871791;16.6519755496411;3427;0;-711;14902;4366;-142;207;-74;678398;500;13:30:15.264056
246.035283925157;465.493214815622;12.0056243306026;-136.100904552179;-169.032435574307;-352.432679491467;10.5774557430414;-16.0673003765987;3427;0;-711;14902;4366;-142;207;-74;678399;500;13:30:15.264105
423.563747839857;618.208260529442;582.071025755722;34.286069029622;-280.026509482006;-466.568615057738;-36.4420119450078;88.7596332115354;3427;0;-711;14902;4366;-142;207;-74;678400;500;13:30:15.264719
233.160019326606;-20.0425718718907;18.086433508317;-157.19221839754;-235.592849542882;-254.305903305649;-6.35441553703276;116.749306944082;3427;0;-711;14902;4366;-142;207;-74;678401;500;13:30:15.264781
-53.2560096752713;-314.436010717414;-235.763312095194;34.3316335206327;429.386598030542;140.152893681312;-77.0106727047823;-27.5332361101173;3427;0;-711;14902;4366;-142;207;-74;678402;500;13:30:15.264841
171.711112754158;430.342843334773;398.000411694637;453.017812738748;390.422657302435;-46.6925823609345;-44.4256988350535;2.89892881154083;3427;0;-711;14902;4366;-142;207;-74;678403;500;13:30:15.264895
537.955359090935;990.904800988967;581.617096288712;357.659644369851;230.692928375618;100.708324410487;18.5602371430141;174.062920136494;3427;0;-711;14902;4366;-142;207;-74;678404;500;13:30:15.325447
564.712410186534;751.418152942671;553.237524983822;515.889815494622;679.134056363313;165.771114828065;12.1903943310026;266.564153149258;3427;0;-711;14902;4366;-142;207;-74;678405;500;13:30:15.325484
205.539612787514;139.256599152577;331.410123804584;531.011824944726;698.612571258418;229.021162719815;97.3242764641764;156.169294415275;3427;0;-665;14593;4452;1063;361;-98;678406;500;13:30:15.325512
-177.974603318726;-553.709270363557;-150.009155177162;189.169246504985;421.684042757261;268.61620573618;261.884651997942;50.1281394099351;3427;0;-665;14593;4452;1063;361;-98;678407;500;13:30:15.325542
-167.144037138467;-622.870833272813;-388.899054743932;-198.099197016243;-101.233110278001;156.656820002827;441.273438886972;142.171004526899;3427;0;-665;14593;4452;1063;361;-98;678408;500;13:30:15.325574
93.981898616039;60.1279049516888;-112.017401598394;-244.637485684128;-338.373489257356;-269.921899304725;226.868703910499;137.659233986284;3427;0;-665;14593;4452;1063;361;-98;678409;500;13:30:15.325605
192.843847552227;379.827693667728;51.1051595013123;-311.453686644498;-558.626777743106;-451.67013528652;105.563428739435;80.5298522164812;3427;0;-665;14593;4452;1063;361;-98;678410;500;13:30:15.325638
459.400527662307;788.932376280893;419.881642049877;68.7687998041802;-180.853644336894;-195.870140836574;189.48683848494;154.291495458689;3427;0;-665;14593;4452;1063;361;-98;678411;500;13:30:15.325672
162.137569828308;281.631941639003;139.095100276987;36.804461818916;-16.477699239389;4.07459953788202;192.855091098638;49.2453790390864;3427;0;-665;14593;4452;1063;361;-98;678412;500;13:30:15.325707
114.035749915638;124.491749890614;-82.5406935621286;-211.398843936709;-182.090077981178;46.4978855053196;186.236252717674;54.8212189112091;3427;0;-665;14593;4452;1063;361;-98;678413;500;13:30:15.325743
217.579577774217;128.308418061468;-27.1315270077903;-83.839481850795;42.9276207013463;270.245141847408;146.899135628541;83.1814423638862;3427;0;-665;14593;4452;1063;361;-98;678414;500;13:30:15.325781
-35.93933567559;-166.051493267762;-148.306327486993;-135.750353627693;-4.17158815675066;256.663557419786;115.997460698767;50.5657218998531;3427;0;-665;14593;4452;1063;361;-98;678415;500;13:30:15.325821
-164.060146926029;-187.423733261181;5.31812693399843;103.166267824301;191.791625523154;370.441031847731;97.4020850476809;39.2239889348857;3427;0;-674;14543;4530;1838;510;-410;678416;500;13:30:15.325862
-337.280646653293;-319.821310793399;-145.07493157126;151.277246066864;168.663471601991;209.502913147677;66.1164023045567;-61.4148144333158;3427;0;-674;14543;4530;1838;510;-410;678417;500;13:30:15.325904
-312.556749889016;-348.197116580443;-217.065752791823;89.4693972056557;-114.544004173193;-181.970287044067;49.1312637446681;-76.3260148544796;3427;0;-674;14543;4530;1838;510;-410;678418;500;13:30:15.325955
-154.967337212089;-333.473819853272;-112.25595787866;-24.2386689048144;-123.911352728814;-275.392546900548;42.2937679123715;-0.617100972798653;3427;0;-674;14543;4530;1838;510;-410;678419;500;13:30:15.326001
117.922267062793;-180.790569457458;-194.58115961845;-227.950475356716;-234.518982717593;-352.731167578371;107.08973039547;119.858726298087;3427;0;-674;14543;4530;1838;510;-410;678420;500;13:30:15.326048
212.500102188758;24.6491373166209;-199.352201347821;-1.79852130802465;15.0062435294094;-287.978187123314;65.7352252825513;85.788443192374;3427;0;-674;14543;4530;1838;510;-410;678421;500;13:30:15.326097
130.989183899539;90.3853953591315;-52.0126614371547;365.622567771235;490.970244226133;-21.298291649553;10.9821211743983;23.3216160850134;3427;0;-674;14543;4530;1838;510;-410;678422;500;13:30:15.326146
-128.383309544064;-311.763546834001;-541.514903978794;84.4934334056452;433.291953665466;128.765111632762;-16.2565170465386;-61.2222155862255;3427;0;-674;14543;4530;1838;510;-410;678423;500;13:30:15.326198
25.9054454892466;-341.192168909009;-637.322034516954;-367.033923230687;-50.9939594875614;354.461707491195;238.075830950926;161.365977267735;3427;0;-674;14543;4530;1838;510;-410;678424;500;13:30:15.326253
367.078246316378;360.163609505515;217.119957832387;-333.922579085862;-285.762355786195;369.632965148427;268.611106875003;260.924897199729;3427;0;-674;14543;4530;1838;510;-410;678425;500;13:30:15.326309
297.533911421226;615.498486769036;470.598019978614;-378.723833036551;-358.588389719662;-34.7606645133346;6.59311934921425;33.2815265269019;3427;0;-718;14765;4570;1356;703;-486;678426;500;13:30:15.326366
78.790673028474;228.641781918122;131.600686272024;-298.732473812823;-288.385198845732;-252.247364375624;-10.6727461120463;-50.4084075476276;3427;0;-718;14765;4570;1356;703;-486;678427;500;13:30:15.326430
63.5127193024382;165.599661636865;212.217473883415;71.4393470046343;-119.672751326812;-316.952544044121;56.7458540027146;13.0294443364255;3427;0;-718;14765;4570;1356;703;-486;678428;500;13:30:15.326492
-126.476282916788;-28.8299516136758;-20.2171242816839;-177.149476561026;-459.873062912608;-562.69283127517;-29.7166108537931;-90.2810444234638;3427;0;-718;14765;4570;1356;703;-486;678429;500;13:30:15.326554
-155.088369091012;-247.661580349784;-282.54195390048;-188.102894519048;-319.802502980863;-515.16836771532;77.6885964876274;-25.3484930248233;3427;0;-718;14765;4570;1356;703;-486;678430;500;13:30:15.326616
-65.0812608832493;-105.00835487165;-108.30645443697;85.2992874377815;55.0430412354472;-367.848796140868;61.5187061422621;-12.9006200396689;3427;0;-718;14765;4570;1356;703;-486;678431;500;13:30:15.326676
248.391066715703;359.828848851728;322.131504301215;300.627878941188;243.349851262145;-53.4176267345902;64.4295083811739;111.685641780845;3427;0;-718;14765;4570;1356;703;-486;678432;500;13:30:15.326748
195.221669865859;145.087152639171;64.4778972783824;-60.1359127856558;47.6970004011528;254.107838043943;105.063791966473;162.168232120341;3427;0;-718;14765;4570;1356;703;-486;678433;500;13:30:15.327512
-102.746746783028;-454.5396278525;-481.128366029821;-365.711129875534;-315.4450569037;283.509036351927;167.048938032356;100.714459246839;3427;0;-718;14765;4570;1356;703;-486;678434;500;13:30:15.389122
-248.921959368599;-623.324626502348;-624.391298970208;-482.619221604225;-628.327555370022;97.8827587007545;169.622440315143;63.8740698419278;3427;0;-718;14765;4570;1356;703;-486;678435;500;13:30:15.389151
-0.732215409574565;104.394238075241;97.7248234066647;-84.2816250162723;-129.36245627157;147.107338828733;79.7387465672218;74.1973060193704;3427;0;-806;15103;4425;427;673;-303;678436;500;13:30:15.389174
194.67089317998;464.278974261484;437.170850917697;134.185562652419;226.239742475474;129.130438998109;24.7617498776526;98.3011644484941;3427;0;-806;15103;4425;427;673;-303;678437;500;13:30:15.389197
96.4585447424615;247.253461315762;291.387585529708;154.15128888638;106.356630881957;-29.7390061565675;125.494744461263;144.95632600633;3427;0;-806;15103;4425;427;673;-303;678438;500;13:30:15.389222
42.1999607144098;149.196739528677;205.05068862054;268.267535543215;349.690071794874;-0.792796483146958;73.9154451583163;58.8549239974236;3427;0;-806;15103;4425;427;673;-303;678439;500;13:30:15.389246
-72.9949765128549;-215.952815780998;-179.33372284926;126.549146303092;260.047323492559;-253.438228006824;-8.82252165355021;14.5700297150761;3427;0;-806;15103;4425;427;673;-303;678440;500;13:30:15.389273
-170.848575313052;-443.371973631671;-387.986613351852;126.713772183779;227.16360768475;-344.91306628834;-45.8083425040822;-3.32501089316793;3427;0;-806;15103;4425;427;673;-303;678441;500;13:30:15.389300
-126.361521100713;-326.085046388558;-263.101150566712;310.714432742767;632.923735189426;132.197074358817;-44.5681351278326;-14.0402269610204;3427;0;-806;15103;4425;427;673;-303;678442;500;13:30:15.389329
-33.7314883583458;-31.3756545751821;-59.2714650343405;315.518297597242;1008.74831346038;739.487200965174;-63.2165923465509;-33.5647989766439;3427;0;-806;15103;4425;427;673;-303;678443;500;13:30:15.389357
-202.618405145942;-177.593674162286;-184.927369597252;-34.5176274972036;710.055092742899;771.7354576746;-84.6109296311042;-144.268892457243;3427;0;-806;15103;4425;427;673;-303;678444;500;13:30:15.389388
-195.482743657252;-141.116958505823;81.5354376729811;212.091771593026;463.757611696172;716.101054636179;-48.0974945243797;-95.579214212019;3427;0;-806;15103;4425;427;673;-303;678445;500;13:30:15.389420
15.2894653714611;73.7841088828864;390.379834078369;734.855939429282;354.673404212575;401.765531422105;-31.9130714491475;33.9933805074543;3427;0;-825;15318;4220;-306;606;-203;678446;500;13:30:15.389453
-2.15141736503574;-54.8563392249634;519.45902890095;1279.88173214658;491.399091518455;194.689226339804;41.7077795981313;99.3405460937647;3427;0;-825;15318;4220;-306;606;-203;678447;500;13:30:15.389487
-48.1930591090641;-190.831912315567;297.107235623989;1231.74082112603;487.273614756938;71.6784108550055;138.257540768711;132.067889452679;3427;0;-825;15318;4220;-306;606;-203;678448;500;13:30:15.389522
-257.625986298168;-344.976885140291;-64.5852413568646;506.417799376766;27.0509973269072;-269.417006916599;91.4904633481055;-4.55550930183381;3427;0;-825;15318;4220;-306;606;-203;678449;500;13:30:15.389558
-343.196398490545;-318.30905813165;-313.440087676281;-305.267025822628;-344.944560598175;-480.036537552834;131.759741993155;-55.9979127463885;3427;0;-825;15318;4220;-306;606;-203;678450;500;13:30:15.389600
-358.122518566524;-439.03621581383;-474.706547620706;-684.461527911684;-228.326732144254;-225.915035667596;100.964989914326;-71.0208494926337;3427;0;-825;15318;4220;-306;606;-203;678451;500;13:30:15.389639
77.3188705302891;138.377612234908;5.03834108379669;-669.345321159431;-175.762264680554;339.065728710149;139.119329561945;132.770785330446;3427;0;-825;15318;4220;-306;606;-203;678452;500;13:30:15.389679
470.550898007845;675.781741348212;339.667582720751;-380.117650200555;-21.4914508390939;555.129089802504;-27.9199869867298;193.894071612158;3427;0;-825;15318;4220;-306;606;-203;678453;500;13:30:15.389719
152.300247421575;386.607668969315;578.680049425457;173.82460433853;395.190209548804;409.730103822309;-34.8665919710766;52.5159594360739;3427;0;-825;15318;4220;-306;606;-203;678454;500;13:30:15.389762
-49.6887901222217;253.072765289224;787.853918043082;762.579849160276;777.834276103735;95.2064004358836;-56.6312752807862;37.1195770427585;3427;0;-825;15318;4220;-306;606;-203;678455;500;13:30:15.389805
-141.828876322455;85.4206275759498;476.6429394359;588.705731658469;499.796890176629;-648.666698918561;-78.1219432850485;103.401200631051;3427;0;-779;15361;4249;-525;632;-164;678456;500;13:30:15.389852
-90.7070510714839;17.2458846267546;599.591748571023;1241.78923972711;1133.49607803079;-775.052269688691;-212.628250583541;35.6890528291697;3427;0;-779;15361;4249;-525;632;-164;678457;500;13:30:15.389900
16.4234702962276;-341.245840531541;143.615083038108;600.760751881375;726.734887775703;576.877818454872;274.651153549785;255.020010835375;3427;0;-779;15361;4249;-525;632;-164;678458;500;13:30:15.389948
57.6220119583304;-676.366216721013;-776.715050107799;-987.276427813689;-1138.76352066323;231.477649508161;479.57325694192;303.658876068192;3427;0;-779;15361;4249;-525;632;-164;678459;500;13:30:15.389996
615.051878156199;177.270431951387;-570.538463983685;-1190.0363562741;-1379.00223293516;-262.655230853008;361.931212429889;422.234420420253;3427;0;-779;15361;4249;-525;632;-164;678460;500;13:30:15.390044
308.8872351592;22.5187961894553;-521.938611368416;-1117.93108637002;-1206.76331830554;-323.296261599404;200.031733132026;227.276317339158;3427;0;-779;15361;4249;-525;632;-164;678461;500;13:30:15.390100
6.53380448554526;356.634465290001;-17.7956463432638;-844.951901294873;-793.160111163743;67.9934766201768;200.139329615049;59.5875574871898;3427;0;-779;15361;4249;-525;632;-164;678462;500;13:30:15.390154
340.972234282555;718.363645877806;311.115500137326;-270.268375768996;-156.129147172789;427.563039962668;118.750535709958;144.414590248954;3427;0;-779;15361;4249;-525;632;-164;678463;500;13:30:15.390209
254.841187395679;446.50603810756;225.489842691342;29.9314563155058;140.047807135677;647.476093403413;0.611093414074276;91.0396656474331;3427;0;-779;15361;4249;-525;632;-164;678464;500;13:30:15.390263
154.869537892489;307.21283970587;291.974051594385;316.443808334036;551.770214644464;924.242286213557;6.17772421706468;48.265168916434;3427;0;-779;15361;4249;-525;632;-164;678465;500;13:30:15.390316
309.545542326669;373.36504519335;335.754144509789;193.917347515468;58.9890748570906;499.906123327208;125.955419686041;186.884761958616;3427;0;-753;15240;4476;-391;767;-49;678466;500;13:30:15.391274
384.765626040549;420.7890726974;279.599719096208;-98.0109920832911;-534.965212661918;-81.1312595296185;223.363738914079;311.841010586126;3427;0;-753;15240;4476;-391;767;-49;678467;500;13:30:15.391427
348.725442435854;419.904547515558;262.891676030238;-59.3474105288915;-494.427412904741;-540.628744090674;136.697561700654;267.281472117873;3427;0;-753;15240;4476;-391;767;-49;678468;500;13:30:15.452656
133.253564631246;195.421681638109;99.3075170093216;18.5855264648562;-211.902352634905;-860.211146854213;-63.1725284782588;70.2309724022634;3427;0;-753;15240;4476;-391;767;-49;678469;500;13:30:15.452719
-12.9517650933121;51.2466615918092;56.0180796075147;99.5195065441949;-133.633851060382;-840.876416648389;-131.357181217929;-52.811818295042;3427;0;-753;15240;4476;-391;767;-49;678470;500;13:30:15.452768
-93.7310382192663;-107.029876986402;-193.432190693333;-384.015247565025;-745.997428116767;-663.744487647549;-118.191753921972;-83.8850888031302;3427;0;-753;15240;4476;-391;767;-49;678471;500;13:30:15.452831
-301.691146726196;-337.856657817145;-454.665975142037;-677.653576911107;-852.817763070721;-379.486420573317;-130.029754293151;-208.97292733239;3427;0;-753;15240;4476;-391;767;-49;678472;500;13:30:15.452888
-326.180627014226;-301.451149108936;-276.365063717938;-177.570124393882;31.5006075755518;220.229325115099;-164.570986914274;-233.115864477819;3427;0;-753;15240;4476;-391;767;-49;678473;500;13:30:15.452946
-191.352085587278;-146.238886020612;-97.2986617615679;87.7136955300521;484.419853002764;662.391597251757;-97.3122977406019;-111.861206488218;3427;0;-753;15240;4476;-391;767;-49;678474;500;13:30:15.453004
-118.818275372148;-88.3587921494618;-95.3639377086656;-84.5858678002842;279.76655809395;870.444593166118;-130.264333529049;-98.4472188537475;3427;0;-753;15240;4476;-391;767;-49;678475;500;13:30:15.453064
-55.1355634772626;-143.491357877618;-116.305797281791;-156.349584189855;-41.5915915372898;410.055303294095;-29.6377581026754;4.24028466339223;3427;0;-819;15049;4596;74;790;-24;678476;500;13:30:15.453128
-92.6143213138275;-222.773465330829;-90.2755005542422;-101.005216469668;-103.542251251318;41.8551134774461;0.171133424679283;44.0330089114141;3427;0;-819;15049;4596;74;790;-24;678477;500;13:30:15.453197
-52.1092077508802;-95.3512920347275;17.9142172466964;12.2830135697732;-200.49008587416;-242.248996448587;94.201278180175;68.4208868915448;3427;0;-819;15049;4596;74;790;-24;678478;500;13:30:15.453269
34.5982045104611;103.026874648291;-7.41607720765751;-198.81150271502;-640.055600010091;-670.863955714158;105.56630032853;50.764185304055;3427;0;-819;15049;4596;74;790;-24;678479;500;13:30:15.453343
65.5654270488594;-80.6873912168667;-328.566151716164;-582.161453054141;-881.320008126291;-822.807392827701;-72.0265365900123;-2.44888011307921;3427;0;-819;15049;4596;74;790;-24;678480;500;13:30:15.453415
-440.479626845423;-1011.38899468025;-654.63658653188;-483.703142860788;-594.838937173859;-639.916103034746;-166.905350848683;-167.290663583088;3427;0;-819;15049;4596;74;790;-24;678481;500;13:30:15.453489
-1125.02480578105;-2021.85313838674;-918.972144003492;-206.587309700553;-36.6443357240059;-9.11655802431051;-76.7497253656038;-379.754682549741;3427;0;-819;15049;4596;74;790;-24;678482;500;13:30:15.453567
-1414.41006477323;-2150.09146710054;-650.30390536983;387.062356180046;637.805605434987;594.92485092592;-119.885191710899;-469.307289727847;3427;0;-819;15049;4596;74;790;-24;678483;500;13:30:15.453647
-814.698106395052;-1006.63628086972;-136.528666259954;608.578559124871;619.116924848611;462.983733559726;-161.483540305635;-345.061464032624;3427;0;-819;15049;4596;74;790;-24;678484;500;13:30:15.453731
356.910796925687;961.300988984178;414.560830070055;119.757279842772;-8.52913315378828;99.1417344345246;-100.200213922013;-42.485584515729;3427;0;-819;15049;4596;74;790;-24;678485;500;13:30:15.453834
465.472526033613;850.551729088649;299.898369875969;-148.315186707536;-577.655862074491;-164.760916108033;-51.6032073217211;55.5766986586386;3427;0;-831;15005;4343;-108;997;-392;678486;500;13:30:15.453924
175.161782137526;328.747411930002;123.056266996777;-72.1792186391831;-423.161705944571;-266.362127916072;-48.3296297324705;48.0688574693631;3427;0;-831;15005;4343;-108;997;-392;678487;500;13:30:15.454019
502.60471685807;776.386543310597;453.2408196365;265.357826278865;-144.374466933979;-306.065588646801;6.5797705836012;198.658545499435;3427;0;-831;15005;4343;-108;997;-392;678488;500;13:30:15.454118
439.371580667212;572.470094797667;338.060955781722;159.433501609485;-304.32388055959;-482.398218571907;0.184690725582186;160.535601565382;3427;0;-831;15005;4343;-108;997;-392;678489;500;13:30:15.454218
358.02967218007;365.115182531648;222.318682630081;14.0820890629548;-483.132606577594;-380.248446407146;197.587451556057;188.469686635886;3427;0;-831;15005;4343;-108;997;-392;678490;500;13:30:15.454316
333.339292728604;358.090867645922;146.769161685836;-56.9112745244638;-232.378546157182;106.214171534171;437.235912097211;229.959989647032;3427;0;-831;15005;4343;-108;997;-392;678491;500;13:30:15.454413
183.732133705838;335.240282159066;144.700810333714;149.245613026811;516.101382894936;837.021824830677;527.793827939196;258.004445634549;3427;0;-831;15005;4343;-108;997;-392;678492;500;13:30:15.454522
-69.3510710432311;222.230987278395;216.189836002304;445.240598237549;1048.51495176711;1229.74042357644;207.77669891878;-40.2602142882533;3427;0;-831;15005;4343;-108;997;-392;678493;500;13:30:15.454639
-193.065318726905;62.9243927753996;212.246666744119;380.766867912636;716.635658779502;980.515211067628;-76.4523826643708;-70.4621074717725;3427;0;-831;15005;4343;-108;997;-392;678494;500;13:30:15.454756
-37.9718582445057;32.8042463043239;59.2824703543447;-18.8029063751746;-187.500140635966;-3.98967359552626;-78.8801035599317;109.396384631866;3427;0;-831;15005;4343;-108;997;-392;678495;500;13:30:15.454877
-1167.74013489127;-578.282625514898;-139.473683072836;-36.7523455973133;-180.003765113564;-42.0785741799045;-44.5058005527826;-542.773599850596;3427;0;-531;15446;4013;-879;1277;-394;678496;500;13:30:15.454989
-3740.18629606036;-1873.36307480314;-178.730420451495;452.334409038245;357.072825819429;358.551932837931;97.7593326759525;-1690.60746933473;3427;0;-531;15446;4013;-879;1277;-394;678497;500;13:30:15.455102
-5144.50946776316;-2739.79258454184;-306.927079798537;725.615322949365;456.142604300694;238.411050454713;-0.255058551672846;-2517.96721054311;3427;0;-531;15446;4013;-879;1277;-394;678498;500;13:30:15.455232
-3363.03072995556;-1874.12623103871;-95.6370653572958;1046.13614566362;543.026112348132;-71.0381725523621;-307.719664446893;-2067.86973727937;3427;0;-531;15446;4013;-879;1277;-394;678499;500;13:30:15.455448
362.957037724525;33.1806677257409;10.6622815581504;528.860190110543;-74.7690354232036;-554.500844850438;-247.621495424828;-159.523606636678;3427;0;-531;15446;4013;-879;1277;-394;678500;500;13:30:15.515939
3018.84241440537;1411.84503975569;-126.840329677449;-630.893182404077;-993.901425022224;-1142.2102028043;-180.314136957866;1446.74873138231;3427;0;-531;15446;4013;-879;1277;-394;678501;500;13:30:15.516000
2430.64889532595;1163.36853021919;-374.914185758564;-1338.89064356798;-1060.80750509215;-990.144530137302;-237.064765623712;1162.67496479768;3427;0;-531;15446;4013;-879;1277;-394;678502;500;13:30:15.516051
1068.62069967209;363.438886899035;-457.894786795252;-1246.97219069782;-707.475526413968;-426.540529590216;-148.010445082735;537.273088932387;3427;0;-531;15446;4013;-879;1277;-394;678503;500;13:30:15.516103
609.981031347415;187.619567445712;-344.053159506293;-968.334631620179;-599.014739803562;-134.294493639609;-58.0749200501014;346.970944323461;3427;0;-531;15446;4013;-879;1277;-394;678504;500;13:30:15.516158
563.48707266149;330.993551413645;-117.338846589206;-712.019839465036;-973.851837661903;-325.67215946014;-70.6223362516612;298.156126455637;3427;0;-531;15446;4013;-879;1277;-394;678505;500;13:30:15.516215
185.640358446079;140.652863323339;21.0867210108554;-384.346956838446;-551.954044688609;-187.704631803324;-193.316128896549;63.1149017548887;3427;0;-416;15543;3882;-1857;2476;-168;678506;500;13:30:15.516273
-25.5145115236519;166.339048487367;191.570200562361;-31.9322751454893;-178.034273449361;-91.2025056963321;-90.8772458920721;58.57425265864;3427;0;-416;15543;3882;-1857;2476;-168;678507;500;13:30:15.516333
-391.043427581579;-104.438448003144;28.0059392430121;7.0276734692161;-101.93211477148;-336.756877091946;-75.1762165039545;-46.2803658070043;3427;0;-416;15543;3882;-1857;2476;-168;678508;500;13:30:15.516396
-497.593293574289;-290.343230243656;-109.666948199156;-2.19900006501121;-138.075890866574;-656.743806663551;-197.799042376748;-185.598628533422;3427;0;-416;15543;3882;-1857;2476;-168;678509;500;13:30:15.516464
-142.688534594752;-155.916265952401;-58.7919977235142;-110.684994191834;-395.368313168146;-706.385027277982;-113.177335978835;-31.0084216218675;3427;0;-416;15543;3882;-1857;2476;-168;678510;500;13:30:15.516535
891.487274032232;395.205298455199;-97.9872233715141;-613.322911061376;-919.73118970808;-739.478683790308;-127.988812172494;343.257926661288;3427;0;-416;15543;3882;-1857;2476;-168;678511;500;13:30:15.516608
916.979729321291;507.149416953675;-2.53339395078365;-530.305830825499;-532.206971028092;-425.312609894201;-94.9104825961404;397.819465015316;3427;0;-416;15543;3882;-1857;2476;-168;678512;500;13:30:15.516684
438.288500830764;314.583085253485;157.31577857607;54.530968897423;140.672706018348;-46.4846079308772;-200.372238755925;154.553903683322;3427;0;-416;15543;3882;-1857;2476;-168;678513;500;13:30:15.516762
309.394102553197;322.164656190085;269.450281953788;264.376166178641;249.639890249528;130.852716526017;-252.834339452325;59.4070935202762;3427;0;-416;15543;3882;-1857;2476;-168;678514;500;13:30:15.516851
320.227909746143;385.288702350343;359.305226376629;314.578569223144;15.3877973757626;136.039736107574;-177.431859691394;85.6894292555517;3427;0;-416;15543;3882;-1857;2476;-168;678515;500;13:30:15.516931
319.982654061314;349.228469226509;302.937024974613;225.017232829006;-257.67694375565;37.8070309465984;-95.0140617067809;133.502612177399;3427;0;-743;15034;3833;-2187;3339;-394;678516;500;13:30:15.517014
240.228205235617;145.661727896775;-136.325208829716;-480.550944649091;-313.666140933667;142.530050128349;46.0030215701554;175.74474348838;3427;0;-743;15034;3833;-2187;3339;-394;678517;500;13:30:15.517100
211.14760541229;148.349365159753;-82.1672411621548;-325.648695715878;-329.193997944909;-47.2154375982936;42.1578391438234;147.890228105476;3427;0;-743;15034;3833;-2187;3339;-394;678518;500;13:30:15.517189
96.9596952998836;18.8293644955847;-167.806844284758;-342.598676991067;-443.889658872708;-385.638998991693;-55.0531295162509;34.9155730056809;3427;0;-743;15034;3833;-2187;3339;-394;678519;500;13:30:15.517284
-34.6872393718804;-281.985804390395;-289.139023997937;-350.379832589824;-504.467053045635;-678.083913084818;-64.5920584508567;33.6561928654555;3427;0;-743;15034;3833;-2187;3339;-394;678520;500;13:30:15.517382
-169.657560699794;-484.627486692509;-235.039086316945;-49.9887258090603;-234.344411378261;-567.364219431882;-91.8967658777838;-15.2886021638988;3427;0;-743;15034;3833;-2187;3339;-394;678521;500;13:30:15.517485
-275.110844462237;-608.201138778706;-254.148996595992;73.7412578763033;-65.9667019421177;-222.487046999508;-56.2508760109777;-29.834209850058;3427;0;-743;15034;3833;-2187;3339;-394;678522;500;13:30:15.517586
-326.567900154478;-479.783701457316;-266.05407098087;-148.906728821778;-405.505932164961;37.5986395392101;-32.9728743146989;-78.9781238639262;3427;0;-743;15034;3833;-2187;3339;-394;678523;500;13:30:15.517688
154.284702235745;232.365462755086;147.523368519498;203.629372466065;121.78262346267;412.690753703355;-87.4964804481715;28.512927059317;3427;0;-743;15034;3833;-2187;3339;-394;678524;500;13:30:15.517809
16.9787403850351;-42.2340223900974;-47.2736539769685;28.0507865345862;93.9337677876465;346.827975846827;-71.7735331153381;3.48602103022859;3427;0;-743;15034;3833;-2187;3339;-394;678525;500;13:30:15.517919
150.692007010017;261.976395555888;252.268177656108;309.799490803794;204.559731411515;270.842865086277;-45.3129063207307;76.1586452540942;3427;0;-1082;14806;3886;-981;2803;-776;678526;500;13:30:15.518040
13.4243320856185;-80.5762336314656;221.116960393498;452.868118525366;228.334012066829;169.958614184638;36.4688541513169;170.776923043421;3427;0;-1082;14806;3886;-981;2803;-776;678527;500;13:30:15.518159
-516.646967736189;-539.091264156625;278.789498145226;771.019201165298;-31.4152439432801;-72.7719438605709;125.177877797512;-29.9419742870377;3427;0;-1082;14806;3886;-981;2803;-776;678528;500;13:30:15.518275
-349.424896631041;55.549288933631;457.96168629732;798.968091765768;-352.513072357746;-588.729935867945;-3.86248121148674;-161.572153724846;3427;0;-1082;14806;3886;-981;2803;-776;678529;500;13:30:15.518397
-404.889030990191;241.288398571545;215.517506895587;-171.184648046299;64.7912430186407;-215.77494158328;27.7081494674785;-93.7967101172544;3427;0;-1082;14806;3886;-981;2803;-776;678530;500;13:30:15.580776
-658.393910315412;-285.830025321105;85.4045636159135;166.629574237246;-42.8475109695282;-239.004912929377;5.22114549874095;-161.019702315563;3427;0;-1082;14806;3886;-981;2803;-776;678531;500;13:30:15.580842
-374.071736702725;-230.975577067235;44.3627700400539;444.568902759551;86.3774582024489;-134.735892090714;-65.6788172266679;-138.953489577398;3427;0;-1082;14806;3886;-981;2803;-776;678532;500;13:30:15.580894
-548.421249176696;-360.640141690965;-260.504751569475;-183.301689458051;-14.5763444673794;92.4546063155867;-40.2911740876152;-191.688355412916;3427;0;-1082;14806;3886;-981;2803;-776;678533;500;13:30:15.580945
-1110.12054144076;-721.207958748913;-416.467964009149;-626.437514514837;-52.6566125190875;428.103945650277;108.999298234528;-250.713381145149;3427;0;-1082;14806;3886;-981;2803;-776;678534;500;13:30:15.581000
-1377.56920438164;-815.889502176666;-142.162549882662;-43.4375315811485;402.638879597012;756.563720608945;132.202896071423;-452.090940989787;3427;0;-1082;14806;3886;-981;2803;-776;678535;500;13:30:15.581058
-1237.16923493307;-562.539218701073;356.290861494839;706.189352558635;729.008386325935;786.743167259614;5.05585667735431;-813.910386582138;3427;0;-1405;14519;4152;769;2606;-1351;678536;500;13:30:15.581116
-334.283130461961;339.56689950265;683.543813513359;752.792419103323;556.388000239269;447.835003226064;-125.472322471091;-701.137572851498;3427;0;-1405;14519;4152;769;2606;-1351;678537;500;13:30:15.581186
572.247198943485;979.970290007303;403.479279598454;-83.662714876642;-217.302552398585;-307.213180512656;-100.334892719635;-171.378355752095;3427;0;-1405;14519;4152;769;2606;-1351;678538;500;13:30:15.581249
257.051517423504;647.410351588973;320.676837893901;-62.003484774119;-131.669798581133;-677.184308400145;-215.625663885672;-48.7077062701574;3427;0;-1405;14519;4152;769;2606;-1351;678539;500;13:30:15.581320
192.23093717781;380.590233788243;217.033419726882;-11.7936567367578;62.2108447669307;-558.55429627758;-250.96228860243;-65.6977683659643;3427;0;-1405;14519;4152;769;2606;-1351;678540;500;13:30:15.581388
856.628306304716;574.210476288572;165.356828086195;-84.4411699424963;-195.505418426474;-600.383206635364;-191.441893478215;319.00041281723;3427;0;-1405;14519;4152;769;2606;-1351;678541;500;13:30:15.581502
524.911388397828;278.454618805554;-29.7741330848075;-402.627238242392;-672.594862570695;-491.610522565315;-44.2138491574442;250.702463380527;3427;0;-1405;14519;4152;769;2606;-1351;678542;500;13:30:15.582743
-60.0639862465032;169.230499904486;241.612347678049;-3.31423010348226;-140.016367782751;215.052120539243;80.3086998109939;-160.588641416398;3427;0;-1405;14519;4152;769;2606;-1351;678543;500;13:30:15.582887
-290.914482748922;63.351206043968;274.082454403746;314.493893520994;416.723007652035;682.332510411274;57.192379224638;-377.925521537312;3427;0;-1405;14519;4152;769;2606;-1351;678544;500;13:30:15.582964
334.757308556116;286.727901139995;320.048775282688;499.133930381853;603.776178322121;772.089706835221;16.475054417213;40.482870023232;3427;0;-1405;14519;4152;769;2606;-1351;678545;500;13:30:15.583045
1239.79536158804;657.359546484542;278.972594383173;406.180913415446;343.271441276738;431.397347886814;9.0591813189676;703.094978694106;3427;0;-1593;14080;4895;759;1612;-1494;678546;500;13:30:15.583142
1167.56143462667;595.032372804475;391.435348095139;812.239628290175;279.786899180268;286.735602991073;-26.0893348864629;798.919510477921;3427;0;-1593;14080;4895;759;1612;-1494;678547;500;13:30:15.583239
631.11048798915;407.254408290493;207.335684888181;578.19181473495;261.802746980306;392.30568939005;-17.0730627392186;426.455307864468;3427;0;-1593;14080;4895;759;1612;-1494;678548;500;13:30:15.583329
433.245144718938;416.579675621237;-16.210451806779;-196.535149032512;384.151132145955;374.311251780251;-166.174372853769;183.837673690985;3427;0;-1593;14080;4895;759;1612;-1494;678549;500;13:30:15.583435
407.764326064964;323.416280691163;-61.0712560040411;-495.512742448773;16.0334116283921;-10.1655364708276;-8.3271047603339;228.454029759043;3427;0;-1593;14080;4895;759;1612;-1494;678550;500;13:30:15.583608
414.385591038212;300.965845310362;25.8050585037563;27.1158719092782;-494.562397552596;-839.013965341146;30.2872599598486;257.59806772205;3427;0;-1593;14080;4895;759;1612;-1494;678551;500;13:30:15.583710
433.826615357713;233.071630755672;-104.047478239518;196.399476178573;-558.532971176406;-850.556985010626;87.299406332837;379.780204274575;3427;0;-1593;14080;4895;759;1612;-1494;678552;500;13:30:15.583822
269.164782065665;84.5289285446052;-179.605804429739;301.949121969636;59.0334222339443;-215.987406929256;-43.2281304640928;251.985082342988;3427;0;-1593;14080;4895;759;1612;-1494;678553;500;13:30:15.583933
310.266644432326;223.043067614897;-64.4079858163605;89.1637730806542;213.7496425258;224.835696537397;-11.1370690130279;232.106809626101;3427;0;-1593;14080;4895;759;1612;-1494;678554;500;13:30:15.584047
77.5628347544407;48.7761304802261;-307.401124913013;-674.484525311127;-0.166969198005972;154.328201209195;-24.1649007753585;119.055517065572;3427;0;-1593;14080;4895;759;1612;-1494;678555;500;13:30:15.584165
-135.344366618985;-190.891252197907;-506.604150826344;-1009.20912611461;46.9618115350022;-33.5606706778053;-111.560066182225;-8.48862195573747;3427;0;-1280;14446;5085;1401;1726;-241;678556;500;13:30:15.584300
40.9797924295708;82.2336198707344;99.6473046268802;-18.0315998378792;-6.86816032853676;42.2533689616248;-58.7350002170424;77.2282784819836;3427;0;-1280;14446;5085;1401;1726;-241;678557;500;13:30:15.584412
195.225512913748;178.03893121623;200.457202554913;185.646884230577;-375.043214064528;-58.7740930129075;45.1075063744793;176.77792564535;3427;0;-1280;14446;5085;1401;1726;-241;678558;500;13:30:15.584526
25.5635862132767;-163.613758894033;-439.346892127884;-728.208741838112;-475.263084432285;-384.118041340495;23.4331913185888;75.3344767319504;3427;0;-1280;14446;5085;1401;1726;-241;678559;500;13:30:15.584657
283.342772700329;292.015999936848;353.88817599148;398.606172991422;-386.394734340225;-1023.38289113331;42.7722194519592;219.616465116851;3427;0;-1280;14446;5085;1401;1726;-241;678560;500;13:30:15.584787
402.742247730639;330.533517997945;383.943899776088;423.181806139532;-555.00753781505;-745.346718397806;102.611664612137;310.413262781571;3429;0;-1280;14446;5085;1401;1726;-241;678561;500;13:30:15.584911
331.82308959472;143.970409443369;405.659259896143;989.025663220615;321.940633315971;146.363068080973;188.530969152518;332.489280842012;3429;0;-1280;14446;5085;1401;1726;-241;678562;500;13:30:15.585032
203.145509000635;-150.574416876188;118.032434737077;403.962592227239;967.313324686169;1126.306224545;274.363678315014;316.514214679599;3429;0;-1280;14446;5085;1401;1726;-241;678563;500;13:30:15.585148
326.490924200392;174.687581674545;843.639032409876;880.554640915827;1287.58370215516;1559.33233686298;303.463968185999;369.294718215824;3429;0;-1280;14446;5085;1401;1726;-241;678564;500;13:30:15.641214
209.784107524523;218.625699982862;1001.66587523825;707.212956600619;1103.94970636198;1492.99781851174;288.464116994175;301.15832014312;3429;0;-1280;14446;5085;1401;1726;-241;678565;500;13:30:15.641246
157.132490568561;232.194161291351;508.763688837527;147.453392417054;667.172796045488;1047.82202228578;177.24687524722;185.167414819938;3429;0;-795;14987;4785;2302;2393;320;678566;500;13:30:15.641271
203.513094878581;349.927431981894;305.214508690522;-55.5230866954953;35.0873565660731;302.090541539481;73.3740189313539;135.211227356689;3429;0;-795;14987;4785;2302;2393;320;678567;500;13:30:15.641297
-75.6485112629016;24.9533938042587;-310.1969575478;-589.861402670038;-637.799654713861;-426.390256199287;-8.33589804399526;-18.4697798980633;3429;0;-795;14987;4785;2302;2393;320;678568;500;13:30:15.641325
-287.721266370761;-230.376149933436;-700.280668224324;-1089.67895805187;-1125.37191089572;-907.258077996899;-148.649885602121;-256.686847321922;3429;0;-795;14987;4785;2302;2393;320;678569;500;13:30:15.641354
-200.004268611316;-92.9596033508424;-475.305392867303;-1090.31397452505;-1339.49355046952;-1145.57369865058;-156.031315927103;-254.413670583279;3429;0;-795;14987;4785;2302;2393;320;678570;500;13:30:15.641383
58.5432874961407;237.51882717968;60.9029019920854;-536.387862101285;-975.509629900189;-993.307283602306;-160.333208014898;-72.2908231873298;3429;0;-795;14987;4785;2302;2393;320;678571;500;13:30:15.641413
328.766044370044;503.242459523841;371.78855061566;-87.7389203174098;-495.789506074478;-555.710700924392;-203.331193568127;124.454228788032;3429;0;-795;14987;4785;2302;2393;320;678572;500;13:30:15.642038
398.839645291737;485.391587697086;261.403890309273;-59.0813844544464;-82.6591156051145;232.204221734311;-12.2538750705426;179.613001269172;3429;0;-795;14987;4785;2302;2393;320;678573;500;13:30:15.642076
566.403413815686;491.594502363703;408.773979103426;276.288199342496;190.165923647466;354.398146373453;-49.1426214148523;204.263525721268;3429;0;-795;14987;4785;2302;2393;320;678574;500;13:30:15.642112
127.654716352234;-181.028038905933;66.3582758363336;219.897858142795;17.3594165974646;91.4661670941859;83.3680879204185;104.379920175183;3429;0;-795;14987;4785;2302;2393;320;678575;500;13:30:15.642148
-771.686977305246;-1362.98569706292;-897.844159439206;-335.651295906253;-568.67573887881;-517.984642368509;204.283293215791;-73.760153741925;3429;0;-816;15372;4680;1529;1878;191;678576;500;13:30:15.642185
-1499.77442350381;-1911.02587018767;-1293.47266276891;-488.738661832234;-565.034959867713;-527.531632659258;137.849961908709;-328.178707904532;3429;0;-816;15372;4680;1529;1878;191;678577;500;13:30:15.642224
-1426.69501741041;-1276.5453918688;-760.919587642071;-363.633659713436;-458.067865869234;-399.80171922571;177.577935950889;-424.382833015407;3429;0;-816;15372;4680;1529;1878;191;678578;500;13:30:15.642264
-621.087488100515;-481.001246138127;201.267526743468;-42.3211713665514;-611.786366359855;-635.374835412251;-219.451789395185;-403.100613837596;3429;0;-816;15372;4680;1529;1878;191;678579;500;13:30:15.642305
399.070780799142;-112.746283426997;282.896872345707;129.893526344327;-1136.21611043223;-1259.51726294623;-380.96573063283;-22.3321957578883;3429;0;-816;15372;4680;1529;1878;191;678580;500;13:30:15.642348
769.482470221003;297.620474081719;-244.676976642688;-719.631141685182;-1174.07283878516;-1254.72467119445;-359.585945182596;166.857828490436;3429;0;-816;15372;4680;1529;1878;191;678581;500;13:30:15.642393
607.559060657688;879.737804849516;193.312183159404;-342.173415707133;-623.112960499566;-685.49481664761;-317.590367685189;14.8112533634994;3429;0;-816;15372;4680;1529;1878;191;678582;500;13:30:15.642438
349.25300501904;722.160234515904;430.056209884002;366.470350738004;430.782914387266;25.715430129203;-313.869122598087;-50.8687380373012;3429;0;-816;15372;4680;1529;1878;191;678583;500;13:30:15.642484
312.783109900163;458.203789222636;136.147672319668;272.247043150826;615.885474861163;302.719791231328;-307.200795283308;-20.3268906887388;3429;0;-816;15372;4680;1529;1878;191;678584;500;13:30:15.642531
64.0946696024912;-83.7045873899478;-162.045898376266;46.0276975617453;458.791117055109;350.672688629595;-291.659972321882;-30.9092445876449;3429;0;-816;15372;4680;1529;1878;191;678585;500;13:30:15.642582
-68.2036316282174;-203.456478253123;198.369475626387;303.604733124637;415.93385650398;241.001088954741;-240.526912035886;-29.4332799228141;3429;0;-1215;15632;4899;205;625;227;678586;500;13:30:15.642639
-231.640766281082;-249.161468080012;574.151188665535;706.021476397524;378.564203496324;-99.8470352661097;-277.472628758987;-85.6118763368577;3429;0;-1215;15632;4899;205;625;227;678587;500;13:30:15.642691
-79.9977608563786;87.3126443872461;436.419585309457;294.475739762507;314.815214883478;-291.347833733191;-227.490161769383;-63.5733557557687;3429;0;-1215;15632;4899;205;625;227;678588;500;13:30:15.642743
-6.76377183073782;26.0579748691525;-122.945086452411;-516.396974243195;-593.82812211648;-768.632194672362;-203.960345507716;-50.7512707846472;3429;0;-1215;15632;4899;205;625;227;678589;500;13:30:15.642796
84.4371286116948;67.9230874385685;-101.928083389881;-438.651681350195;-601.698262938327;-611.878508522874;-128.047810934775;-3.30619492311962;3429;0;-1215;15632;4899;205;625;227;678590;500;13:30:15.642851
249.026786499948;298.074524161988;-134.831837257603;-433.409781112481;-530.940561039111;-545.501748780371;-168.352803694666;11.7466438921401;3429;0;-1215;15632;4899;205;625;227;678591;500;13:30:15.642912
-164.821534347167;-78.8575619354378;-218.994211640325;-338.779172213312;-354.714787294448;-280.189487219555;-72.9983759610914;-115.494673320092;3429;0;-1215;15632;4899;205;625;227;678592;500;13:30:15.642974
-516.851785559498;69.6435581188416;120.245179308113;-0.855418142629787;45.8983776237001;237.213387378026;30.1118627260439;-226.23629795888;3429;0;-1215;15632;4899;205;625;227;678593;500;13:30:15.643036
-98.2872860489879;392.180581382825;415.493639452849;273.223659970856;277.538818603236;472.877999632969;-10.1724205256323;-74.2308533947216;3429;0;-1215;15632;4899;205;625;227;678594;500;13:30:15.688338
126.242316069955;53.8081420152448;142.59090114967;382.882470155484;360.194982834102;346.838714676094;-103.615540702769;-24.4890882598702;3429;0;-1215;15632;4899;205;625;227;678595;500;13:30:15.688356
208.838599941315;-198.853677573032;-166.659320756444;348.057394884236;331.498983223544;42.4917025782634;-143.219141699839;22.644978602184;3429;0;-1711;15741;4977;-1276;-168;456;678596;500;13:30:15.688370
502.063200282748;341.675793037401;359.724494304857;590.908766126231;602.265959066048;110.623525410774;-89.9041571177077;208.314034205163;3429;0;-1711;15741;4977;-1276;-168;456;678597;500;13:30:15.688384
555.09475173612;596.1991170533;487.984773579636;222.531546457001;-43.6248145572899;-217.610829241225;-30.2952096823719;310.169119659695;3429;0;-1711;15741;4977;-1276;-168;456;678598;500;13:30:15.688399
-382.329017282173;-466.211973134079;-382.103301926982;-518.877759428171;-693.373061022168;-649.062311594142;-175.147447118652;-181.532694446039;3429;0;-1711;15741;4977;-1276;-168;456;678599;500;13:30:15.688415
-638.246410375432;-797.852755292668;-626.181932101143;-657.741590195743;-488.308332618035;-301.965833966271;-123.409653016948;-343.125813316437;3429;0;-1711;15741;4977;-1276;-168;456;678600;500;13:30:15.688430
-803.493239673175;-1228.67037723435;-702.22610239184;-528.521506445948;-382.178648583213;-210.609798504622;-149.825319659139;-343.688119418803;3429;0;-1711;15741;4977;-1276;-168;456;678601;500;13:30:15.688448
-832.489225255646;-937.568753603147;-417.556943620904;-263.757379091519;-108.422432418418;80.3504098177655;-135.161636701378;-332.304964687326;3429;0;-1711;15741;4977;-1276;-168;456;678602;500;13:30:15.688466
171.411930389557;564.292379892198;348.521882372326;184.535068358004;374.581121407769;410.405095667113;-154.463142121967;13.8415723043727;3429;0;-1711;15741;4977;-1276;-168;456;678603;500;13:30:15.688486
661.921694298217;1128.1610874593;707.521865019924;485.116360509885;743.219971365848;572.35387927515;-270.904689242656;128.09705084085;3429;0;-1711;15741;4977;-1276;-168;456;678604;500;13:30:15.688506
749.775324163522;1128.44612491992;724.137226288673;501.68856325018;854.81461099122;779.957641742774;-321.287998442887;147.508551193052;3429;0;-1711;15741;4977;-1276;-168;456;678605;500;13:30:15.688528
535.397315549955;736.153551524389;380.780535457889;342.141041611409;878.526214049954;1206.54370592139;-244.823747490474;113.009558006655;3429;0;-1771;15764;4888;-2141;-1075;748;678606;500;13:30:15.688548
204.425863886194;421.274456966436;506.769943037885;666.539444269496;741.914093603613;854.620697618462;-161.35479362309;58.0682767778635;3429;0;-1771;15764;4888;-2141;-1075;748;678607;500;13:30:15.688571
-80.6831504205766;222.604319709702;481.110447234008;474.087586652458;854.421678403509;659.102094764821;170.508460933575;151.879010182805;3429;0;-1771;15764;4888;-2141;-1075;748;678608;500;13:30:15.688593
