CH1,CH2,CH3,CH4,CH5,CH6,CH7,CH8,Vbat,Trigger,AccX,AccY,AccZ,GyX,GyY,GyZ,N,fs,Timestamp
63.3736442957306,14.1925389886601,25.921390040894,-86.8141117510677,-74.6964908496593,131.344497672981,-82.8364657189231,18.5629773414694,3429,0,-694,15216,4690,2009,-21,431,507664,500,5.416582
170.03736128588199,103.87565137946501,-23.363405166775898,-525.79811067399,-1495.5883760376598,-385.173731319373,12.650758548348698,115.852598411846,3429,0,-694,15216,4690,2009,-21,431,507665,500,5.416648
63.694452029798406,-26.189439969253698,-153.519018800347,-531.9686260038,-1522.3391401384101,-478.846968832309,23.470371268049302,74.7857520334655,3429,0,-826,15280,4894,1196,-731,720,507666,500,5.416701000000001
27.2455288655474,2.38263841590378,9.12441082461737,82.0564634645416,159.553733153793,289.252632724354,12.291531622817303,37.210046110791204,3429,0,-826,15280,4894,1196,-731,720,507667,500,5.416761
-48.499146590504104,5.75416322017554,48.4993736775359,99.11895203267339,557.385641551635,396.845179812633,60.876585922786,43.8269555136794,3429,0,-826,15280,4894,1196,-731,720,507668,500,5.416816000000001
248.36507545202002,530.8001559978579,664.747314545675,570.106528339878,713.7160128929539,225.823349063983,3.51542463770602,72.22193284798409,3429,0,-826,15280,4894,1196,-731,720,507669,500,5.416873000000001
139.045122003765,50.5536311076721,148.352791285259,327.642776861816,481.49885481782303,-188.52698145678698,-72.0107377227978,57.528395257191704,3429,0,-826,15280,4894,1196,-731,720,507670,500,5.416930000000001
-121.952045012964,-311.40431288851,-227.443159886054,43.475433722866,240.237738589116,-427.764967464958,-166.465843054873,-60.33352201443629,3429,0,-826,15280,4894,1196,-731,720,507671,500,5.4170050000000005
56.569476043398,-12.9574279654771,109.01003706269,378.977710336156,925.170317679062,176.71074309258302,-89.8042650037096,-17.721828563720898,3429,0,-826,15280,4894,1196,-731,720,507672,500,5.417065
162.303446397767,168.475936929928,436.288657267927,795.7376052515759,1332.2080406688601,780.587157960399,-4.15903735655593,37.2771344032371,3429,0,-826,15280,4894,1196,-731,720,507673,500,5.41713
150.442347265576,243.293624733458,600.4637581933059,1042.29997487416,1481.69892785884,735.9254956597,-193.857142307679,-53.4991393155651,3429,0,-826,15280,4894,1196,-731,720,507674,500,5.417199
173.504585124901,488.091817563167,1033.85784620105,1742.86571401416,2297.0623691085502,914.391855319613,-512.353234027105,-188.852044792031,3429,0,-826,15280,4894,1196,-731,720,507675,500,5.417268
196.27201889554297,331.32160657900397,817.851635424886,1565.08654042086,2088.53237134393,742.782487239689,-430.3471361993,-69.1019765812671,3429,0,-791,15349,5196,-564,-1420,991,507676,500,5.417341
392.65303574278397,368.28914817702,408.742769593489,367.89486559981003,390.91135735187004,173.801001898479,27.281607033568395,232.004700138699,3429,0,-791,15349,5196,-564,-1420,991,507677,500,5.417415
398.74822948887606,389.87440274574305,482.718708461034,511.296614723076,594.6425623572429,517.2208999373249,212.87048933812198,281.899283782928,3429,0,-791,15349,5196,-564,-1420,991,507678,500,5.417492
8.24689839899656,-32.036031692056,24.0976512954803,122.227015552402,312.845586978423,354.49006770108804,197.384162947012,49.92953608336389,3429,0,-791,15349,5196,-564,-1420,991,507679,500,5.417572000000001
-5.71713536774041,-224.089806409669,-542.084247563849,-933.76123062009,-1351.72069042909,-670.781780793914,351.020350871026,137.859690360026,3429,0,-791,15349,5196,-564,-1420,991,507680,500,5.417655000000001
93.7805114324728,-242.81209565733997,-852.7379290726969,-1901.0011298726897,-3038.17821484787,-1193.30698197917,541.480290690728,335.98596306703996,3429,0,-791,15349,5196,-564,-1420,991,507681,500,5.417751
-56.4046000306262,-435.19665718858596,-932.904615573701,-1711.29201276071,-2573.85808250541,-1206.4245468383901,401.604284616362,237.475989468163,3429,0,-791,15349,5196,-564,-1420,991,507682,500,5.417842
-108.318624121166,-354.862692393712,-746.7033383724049,-1149.2424655144,-1616.3746894191102,-1321.68683843594,110.422342949721,78.57460525678471,3429,0,-791,15349,5196,-564,-1420,991,507683,500,5.4179330000000006
-347.398152247188,-519.9795869591179,-737.69736084179,-1019.4900155109599,-1267.03253593168,-881.941224878072,-15.1470580582973,-87.2892453937093,3429,0,-791,15349,5196,-564,-1420,991,507684,500,5.4180340000000005
-126.35517941849,-179.184767189319,-144.452094857232,-75.45219953591,103.54296221846,405.975576569559,54.6327484014328,17.233102693106,3429,0,-791,15349,5196,-564,-1420,991,507685,500,5.418152
16.4076873183076,171.273744118516,481.140346281347,973.067912103957,2113.8651817894397,1765.24284366821,-214.334721526073,-81.2809768466977,3429,0,-606,15361,5213,-2550,-1463,130,507686,500,5.41826
-38.380904421676,129.788022446446,501.660108444397,1059.42841583988,2382.80009364209,1551.25989151921,-292.116917166044,-80.1807593209669,3429,0,-606,15361,5213,-2550,-1463,130,507687,500,5.418364
32.7282311580784,59.00288701104,240.673745287233,362.59057947766297,815.8149724574181,472.34776036313303,-125.44848360488001,76.92703039501791,3429,0,-606,15361,5213,-2550,-1463,130,507688,500,5.4184660000000004
0.592217513360083,-54.6254471177235,-37.931579736876294,-369.284329215996,-489.159826241084,-208.52982565609298,-202.33680064370898,78.0391942008864,3429,0,-606,15361,5213,-2550,-1463,130,507689,500,5.418570000000001
64.2571323845186,81.6039024457568,37.7361946010496,-294.026961919997,-784.072857753141,-864.996609977563,-354.775475310977,53.29700461588801,3429,0,-606,15361,5213,-2550,-1463,130,507690,500,5.418688
163.893102350819,152.529080360313,-54.4918124072719,-525.771714345319,-1584.07040141732,-1588.7563337709303,-424.80315535113897,90.47396955906879,3429,0,-606,15361,5213,-2550,-1463,130,507691,500,5.418812
144.02259866899098,144.056616987684,-113.76607343740801,-706.902030447702,-2158.37262708886,-2016.2228681737301,-311.090360755275,80.4770504735643,3429,0,-606,15361,5213,-2550,-1463,130,507692,500,5.418931000000001
107.500897346821,180.402887234231,66.20344246283639,-75.8394720227225,-77.0845553390682,-372.27366015990305,-102.391997911385,46.7519031991251,3429,0,-606,15361,5213,-2550,-1463,130,507693,500,5.420118
-123.343215588131,-126.5542723377,-15.444845706108,221.396683173632,1038.1317986983302,1264.07950421982,-40.3890172318206,-23.322536835679802,3429,0,-606,15361,5213,-2550,-1463,130,507694,500,5.4795560000000005
-159.506716692616,-72.9183252921794,114.60129285033301,299.26937680519796,923.0353520648199,1663.60313824075,-98.40828793769471,-88.5459994145203,3429,0,-606,15361,5213,-2550,-1463,130,507695,500,5.4796190000000005
-177.324923554668,-95.47403109865259,93.95700003288219,455.65757134257007,1329.06930157437,1240.21913683938,-10.6122065983946,-96.3079510497628,3429,0,-191,15369,4715,-2480,-798,58,507696,500,5.4796700000000005
85.3227878244652,62.12375700892879,33.8169722531457,-62.69129002103001,-93.5437945015728,39.9953028366435,279.805896261241,236.885779407574,3429,0,-191,15369,4715,-2480,-798,58,507697,500,5.4797210000000005
189.662833547773,171.04497913608802,144.357249715831,-57.8165766229795,-360.548387103772,-198.20171054708803,335.043448231707,372.128826872096,3429,0,-191,15369,4715,-2480,-798,58,507698,500,5.479776
3.51229088279069,130.531106044189,247.548978453968,237.17344406509102,384.447945594089,87.30666497815399,158.035175837984,98.23240894021,3429,0,-191,15369,4715,-2480,-798,58,507699,500,5.479833
-63.051713171706105,-144.999826092855,-181.21815810736697,-291.370304356446,-66.40724592196061,-233.957755009062,247.567662137502,127.863884151098,3429,0,-191,15369,4715,-2480,-798,58,507700,500,5.479891
-149.65067582149598,-287.897271195776,-398.91833628003997,-670.2027956505771,-720.3163500659281,-567.10104299034,87.5358000104898,133.270399644738,3429,0,-191,15369,4715,-2480,-798,58,507701,500,5.479951000000001
-46.3505416028784,14.211897383793302,-76.267525213887,-470.886596521072,-933.7516607911681,-504.525813341606,-186.769361093582,79.9731405922212,3429,0,-191,15369,4715,-2480,-798,58,507702,500,5.4800130000000005
117.273686346831,39.267595079029,-140.235246545635,-709.3018199241201,-1569.80840355321,-747.792326570954,-552.047616569384,80.0068637141958,3429,0,-191,15369,4715,-2480,-798,58,507703,500,5.48008
-94.7985983930412,-134.74039483279898,-47.380482600186994,-63.2589786237513,169.243043193826,190.591454580659,-563.937739151705,-94.86231829470492,3429,0,-191,15369,4715,-2480,-798,58,507704,500,5.480148000000001
-105.469586510299,90.92839450633622,390.140291373944,925.511111071712,2107.18255392439,1295.12996995496,3.69682526576798,-117.488354717148,3429,0,-191,15369,4715,-2480,-798,58,507705,500,5.480221
-222.33403133871602,-254.647367683821,-28.464738711016302,397.365436192806,1050.53111700347,1127.74160140392,388.34963200357697,2.2784860917599903,3429,0,116,15325,4464,-410,-519,1247,507706,500,5.480297
-159.849786826235,-234.174004181637,-288.804258618737,-405.43063430828596,-265.252736346796,293.608060111641,551.547037176613,105.643415955245,3429,0,116,15325,4464,-410,-519,1247,507707,500,5.480371000000001
67.8160652352381,208.39504738524602,288.865500950487,271.565125265479,614.690686228161,465.613285894855,434.435865258798,129.20744199038,3429,0,116,15325,4464,-410,-519,1247,507708,500,5.480448
-1.51269332572701,22.350281079066896,136.856543681701,322.979586633068,708.499315803056,204.166388357058,112.07088734663601,85.89113482425459,3429,0,116,15325,4464,-410,-519,1247,507709,500,5.4805340000000005
-173.325240194594,-331.302681353642,-393.86434648186,-470.94501543432096,-471.880300104385,-433.6346946212,-4.5423550991108606,63.9810563335195,3429,0,116,15325,4464,-410,-519,1247,507710,500,5.4806170000000005
-133.30495719198402,-211.478045919794,-195.488689786172,-198.58445479429798,-457.92419532226603,-662.974266310222,-326.39839969459,-29.207655142876302,3429,0,116,15325,4464,-410,-519,1247,507711,500,5.480704
138.757418707188,126.47646484978,258.79138843715197,588.124517229735,585.39673879958,-265.351212347625,-491.18543005443604,27.8304455053294,3429,0,116,15325,4464,-410,-519,1247,507712,500,5.4807950000000005
-93.43124133188391,15.007363678654698,131.015501531889,185.40929825443902,0.8281932132667859,-181.738288268098,-161.990950365784,-38.0756198882591,3429,0,116,15325,4464,-410,-519,1247,507713,500,5.480887
83.7255237979698,273.609550074674,592.134168763296,854.9993467426981,-770.220919592306,-456.911038460792,159.12397630413798,110.49828200228501,3429,0,116,15325,4464,-410,-519,1247,507714,500,5.480981000000001
303.385284099553,400.77835334313596,549.604350208538,575.11640196832,-677.9830346867669,-338.08726619265497,338.091900356696,319.818499550107,3429,0,116,15325,4464,-410,-519,1247,507715,500,5.481073
-73.9702057548275,-296.478547833744,-708.7613714654,-1390.66265151155,-728.97611983784,259.245372347767,225.63147298892702,188.638480747468,3429,0,146,15053,4489,757,-127,1576,507716,500,5.481181
174.480980423192,242.260059793014,205.04439040704202,-99.182194570807,-320.193032097828,276.710597709636,-291.87564846524,111.75776726775801,3429,0,146,15053,4489,757,-127,1576,507717,500,5.481287
308.523123131657,507.937486699549,672.169791049906,733.957276989793,860.6073962328371,637.783077242668,-540.55976289534,115.332444595755,3429,0,146,15053,4489,757,-127,1576,507718,500,5.481394000000001
125.86169649023199,350.916323117912,505.387792316498,537.080171309964,742.708239036321,-13.337201979709802,-664.880100368289,-17.2852830096381,3429,0,146,15053,4489,757,-127,1576,507719,500,5.481508000000001
221.737841720751,324.035515347496,120.057036704267,-451.362715429859,-1069.07890468306,-733.838091575773,-356.335977473296,116.090284852777,3429,0,146,15053,4489,757,-127,1576,507720,500,5.481617
-153.633986954665,-239.14531301299598,-330.028725432116,-390.96702297747805,99.19010225392411,25.4317913664272,-29.7685017827316,-50.3281563286437,3429,0,146,15053,4489,757,-127,1576,507721,500,5.481734
-129.794937582454,-81.77402690204329,85.1095840968192,426.91820821468696,1590.73981375084,1042.53679623327,369.24048777110903,48.676345409476205,3429,0,146,15053,4489,757,-127,1576,507722,500,5.481872
-78.4235981767124,24.941674554138398,255.56752665433999,565.781836804003,1211.25784074544,807.697860556655,160.048245224403,77.8740932981018,3429,0,146,15053,4489,757,-127,1576,507723,500,5.481994
116.402512149827,224.729647036991,386.12443524180003,502.152415592602,722.1864303052431,448.56034123559897,-135.97508531221,170.303931564325,3429,0,146,15053,4489,757,-127,1576,507724,500,5.482115
239.22886183727002,470.707453405717,619.379182979581,664.878292572743,932.829028531385,861.062198393629,-266.31575016072003,200.95431779697498,3429,0,146,15053,4489,757,-127,1576,507725,500,5.482234
256.168632826186,488.01465980370995,382.636035504402,6.69905859386199,-449.189484907081,77.870980656473,-41.2446200382547,206.37040658167098,3429,0,-17,14692,4557,559,543,437,507726,500,5.483490000000001
-50.0807278702559,-243.204357308336,-517.969469978008,-996.041140242771,-1845.7318512627398,-880.379745114362,189.961195785494,171.96091273694802,3429,0,-17,14692,4557,559,543,437,507727,500,5.483628
6.238671547238481,61.25740884954579,73.3739059085492,-55.371197305154105,-110.36118948349,149.931885382277,289.085284961562,145.924342536018,3429,0,-17,14692,4557,559,543,437,507728,500,5.540957000000001
-352.53767914761596,-193.58946375851502,-126.73600397992399,-133.11098492916798,171.354407862644,27.5442997402279,386.960188513214,-102.391979007865,3429,0,-17,14692,4557,559,543,437,507729,500,5.540990000000001
-593.532786969416,-811.938635457424,-976.2395635717551,-1399.38904604589,-2348.84425548709,-1428.91101137944,555.147398367641,-37.5545135306893,3429,0,-17,14692,4557,559,543,437,507730,500,5.541015000000001
-696.345610664604,-768.649065123405,-695.1443146575481,-673.23779773328,-1162.60522772977,-1005.83552304981,199.49573959957297,-215.00559956918,3429,0,-17,14692,4557,559,543,437,507731,500,5.541041000000001
-340.72391834785196,-484.389585979981,-395.66964415251294,155.171396399703,916.156218744756,-99.0806971990969,163.29514057590902,-67.2647315883078,3429,0,-17,14692,4557,559,543,437,507732,500,5.54107
-311.50359488205896,-381.541470061755,-347.36206172779197,-125.853911384125,460.706903915911,17.2575369462138,90.77158960077209,-51.5469494281569,3429,0,-17,14692,4557,559,543,437,507733,500,5.5411030000000006
-427.722905668023,-267.04403324204,38.2296267166967,411.507062387071,686.674556181766,271.26676165219396,-176.61787814321,-229.803950404399,3429,0,-17,14692,4557,559,543,437,507734,500,5.541132
-233.41901676869,-50.616330709075605,181.499252970447,368.74981886398695,297.645716285275,277.631736544543,-44.1565384215792,-75.90212871413681,3429,0,-17,14692,4557,559,543,437,507735,500,5.541163
-8.738776186946781,83.61094393185341,-16.8885949400719,-502.27234348762397,-1767.95538155775,-989.0826492712371,102.55232006515101,135.705548485392,3429,0,-202,14750,4552,298,667,-51,507736,500,5.541196
6.436813544860341,-164.446093411534,-475.14736531360495,-1102.03610312467,-2700.65889870404,-1723.19165853411,174.88160226878202,235.353291301173,3429,0,-202,14750,4552,298,667,-51,507737,500,5.541231000000001
-164.40791362625902,-285.180701400153,-491.41022272268305,-783.995290953928,-664.22009799385,-377.09839251858597,170.77607088536,146.923116655787,3429,0,-202,14750,4552,298,667,-51,507738,500,5.541265
-420.56238429885695,-422.283841599012,-337.520099717658,-160.840266370476,755.535033335909,257.571241066675,-79.733968504006,-150.088986461516,3429,0,-202,14750,4552,298,667,-51,507739,500,5.541301000000001
-292.89671827713,-350.959068674478,-377.331520081731,-368.282702127064,-460.99057658278605,-1100.2061938660902,-55.8198199220351,-21.043997331988102,3429,0,-202,14750,4552,298,667,-51,507740,500,5.541337
-302.957068195334,-358.023428089684,-493.149442520342,-756.963246338069,-954.758990940114,-1182.9019887388001,-92.82064018305391,-53.602824864327005,3429,0,-202,14750,4552,298,667,-51,507741,500,5.541375
-437.09818561142305,-371.941747076693,-347.14017863606597,-363.65072829983495,-128.59127329790502,-99.84804606437679,-228.730387100251,-252.702335471404,3429,0,-202,14750,4552,298,667,-51,507742,500,5.5414140000000005
-339.991633505182,-306.171962230932,-413.614845227683,-594.3394936605471,-545.97468162002,43.513293103547795,-89.6537165030604,-155.156713513774,3429,0,-202,14750,4552,298,667,-51,507743,500,5.541454000000001
-172.53466043729,-148.793083290802,-289.437621574849,-475.306689517369,-261.50831744261103,460.350373251829,-53.672414279950296,-51.866913193138295,3429,0,-202,14750,4552,298,667,-51,507744,500,5.541496
77.3063418343663,234.194211152033,333.054632362677,486.942638480308,1151.29295230104,1297.28741208883,-101.613022079109,43.17883303901179,3429,0,-202,14750,4552,298,667,-51,507745,500,5.54154
177.943637408898,330.165696003009,475.73076280334504,774.3276930906289,1397.6355404764802,1181.65055968065,-17.7764605983975,149.95467226347,3429,0,-222,14993,4437,714,613,-15,507746,500,5.541586000000001
187.880045833794,254.99513895052996,242.95791382063203,330.671278548281,762.375302678847,544.700858787401,72.96383220149441,193.778961161501,3429,0,-222,14993,4437,714,613,-15,507747,500,5.541633
240.41608927561902,312.92154992593,238.66276524087897,45.5791219431558,60.4872033330612,138.283071390819,81.08091867307671,191.336048851721,3429,0,-222,14993,4437,714,613,-15,507748,500,5.541683
98.5061153404822,251.85650227940602,351.67395153793,374.205573790765,534.019918930077,450.444961832836,-1.33745199471014,9.04806016071234,3429,0,-222,14993,4437,714,613,-15,507749,500,5.541734
17.9892005419824,-42.97997847117951,-48.51925683184529,-121.127165357029,-358.82036639453105,-260.892725341604,-125.457634009654,-26.8706924502039,3429,0,-222,14993,4437,714,613,-15,507750,500,5.541786
-90.34158095833851,-151.28359120141198,-77.02064176951541,36.6593041043961,-131.476093294332,-382.98928936198405,-244.047917851422,-102.08969495375601,3429,0,-222,14993,4437,714,613,-15,507751,500,5.541837
28.264403102482902,-28.6734016673872,81.6612158053322,287.873568348499,558.107561122568,223.87616909865798,115.850521624321,85.9836472385796,3429,0,-222,14993,4437,714,613,-15,507752,500,5.541889
-64.29231746,-124.229910758906,-63.740590588306105,-150.739260130737,-521.860487360158,-226.241656364873,225.79473626706698,136.555495119537,3429,0,-222,14993,4437,714,613,-15,507753,500,5.5419480000000005
151.37691678296002,341.884648518404,294.517727148603,3.43519663970801,-901.642931062379,-348.75581871787995,31.2645132080652,154.690572347841,3429,0,-222,14993,4437,714,613,-15,507754,500,5.542007
472.665317020263,595.465811809758,476.37251685431704,488.589218614623,171.240984259173,305.395734680234,-211.518737260019,231.224143604981,3429,0,-222,14993,4437,714,613,-15,507755,500,5.542066
376.52452812655196,465.252111645066,498.925734642078,704.322789709404,1173.08291056304,988.134988992475,-87.5507164009614,254.12435285816898,3429,0,-149,15037,4356,956,619,4,507756,500,5.542128
195.113630545937,213.421706068097,178.335271617514,320.09317187842703,932.110093937197,862.343793597189,277.346740458568,281.697349947295,3429,0,-149,15037,4356,956,619,4,507757,500,5.542188
-4.908165995380839,-101.853259083,-185.95853159437002,-91.15069244743789,-27.3498635491705,52.40469251573089,422.033598229464,207.552848271676,3429,0,-149,15037,4356,956,619,4,507758,500,5.574878
-177.588275776332,-300.893800134421,-499.983473154134,-640.354903552274,-1248.1074067445,-1011.75859698071,180.317264527024,18.057792797684698,3429,0,-149,15037,4356,956,619,4,507759,500,5.5749260000000005
-304.38018314004904,-323.53135420312196,-477.162307283026,-513.884380144969,-786.0651207483611,-1099.65296348627,-105.093707174354,-148.202918131137,3429,0,-149,15037,4356,956,619,4,507760,500,5.5749640000000005
-91.7030589316855,-61.66208580788221,-127.66488225804599,86.03768368120649,563.616005979711,-96.2669105610112,-184.21215254167302,-50.0325623257086,3429,0,-149,15037,4356,956,619,4,507761,500,5.5750020000000005
-129.121035376855,-88.26575814199171,40.586250813328704,575.115037204814,1441.2846431485998,884.655346727581,-357.734996457526,-98.1731346948072,3429,0,-149,15037,4356,956,619,4,507762,500,5.575045
192.675729869108,336.627065243316,362.75286676595,545.289235255681,777.5672932688029,596.204268237925,-432.683493748656,36.1468846395146,3429,0,-149,15037,4356,956,619,4,507763,500,5.575092000000001
264.99106333666697,273.240003038547,174.071488373331,126.26595847390101,-158.128626582853,-26.5418088115985,-438.110579079832,138.975732569699,3429,0,-149,15037,4356,956,619,4,507764,500,5.5751360000000005
211.180908276787,226.53372815961498,68.2329495416488,-82.817848967592,-549.4855299395861,-115.81831861939301,-369.915479374584,111.328003228642,3429,0,-149,15037,4356,956,619,4,507765,500,5.575176
-50.65227867400971,-143.559461363009,-480.491159957368,-796.098007831606,-1385.1069977532002,-501.10555279208296,-19.339786048803898,67.1274795486825,3429,0,-172,14887,4545,483,807,-21,507766,500,5.575227
-251.576467183593,-379.83834342577006,-715.2764478437599,-1044.3100741702099,-1838.5779220496202,-1004.7862667497199,26.747361653309802,-27.2047695060028,3429,0,-172,14887,4545,483,807,-21,507767,500,5.575629
-12.7333167931938,-0.0102599456440657,-63.661274072248496,7.457353255420459,34.0837125641992,202.13718485471298,41.4517971032183,89.32251833344341,3429,0,-172,14887,4545,483,807,-21,507768,500,5.57565
-179.339541540074,-167.510871349019,-113.815762179205,310.717953584972,1288.1045175822198,633.764953440288,105.65829388093,-7.276828033616769,3429,0,-172,14887,4545,483,807,-21,507769,500,5.575668
-177.902552401443,-172.920041659498,-29.1837168823695,499.873461525014,311.354338455363,-397.848025811487,-84.34645527874821,-21.182378254714397,3429,0,-172,14887,4545,483,807,-21,507770,500,5.575691
147.484758416831,207.31867720710602,357.48521840618895,885.396473527595,466.74148675549105,-459.585127141094,-295.825060002913,63.4674342955695,3429,0,-172,14887,4545,483,807,-21,507771,500,5.575711
3.7296445070533104,54.127887275186396,-75.56047431705521,-269.267595924146,378.689530501259,-102.166052334127,-132.990042617836,21.845633633085498,3429,0,-172,14887,4545,483,807,-21,507772,500,5.575731
59.5250826186966,176.128220464569,156.65212579607,129.811128382658,-154.46978447918102,-493.522319610696,115.26640957762699,39.3737721852958,3429,0,-172,14887,4545,483,807,-21,507773,500,5.575753000000001
25.1842566267878,98.8426153841428,-29.4271950030234,-261.158426150942,-828.0394884071429,-528.185853556381,335.574499516573,80.5313884126954,3429,0,-172,14887,4545,483,807,-21,507774,500,5.575776
-7.734968879347429,130.8366061165,84.9422485440737,53.355751494702396,239.928225237818,693.6995035978031,240.08817732724097,7.884800273808651,3429,0,-172,14887,4545,483,807,-21,507775,500,5.575802
-10.4304130126548,76.9637484973064,96.5180135358823,306.302953637671,1145.48799009557,1421.3132482994101,222.303316063539,70.300848419778,3429,0,-359,14829,4768,445,640,112,507776,500,5.606346
21.689332074893198,108.229060034268,170.551451432169,372.23631683545,626.5871339909501,568.672051263624,61.6323634341825,40.5100401303498,3429,0,-359,14829,4768,445,640,112,507777,500,5.606362000000001
49.432135373383105,97.36234607012008,130.366605802323,257.46363563949103,-23.9890939468751,-228.625239051413,42.08990274497771,63.75821777677629,3429,0,-359,14829,4768,445,640,112,507778,500,5.6063730000000005
-301.790780400595,-445.02674549596804,-740.093422670383,-1060.30637588361,-942.7015642805491,-583.6774192751619,3.90865431498969,-103.091964485007,3429,0,-359,14829,4768,445,640,112,507779,500,5.606384
-158.698930241313,-226.37169160787002,-363.433891653782,-495.32319534814496,-595.796525358222,-720.6174211614999,147.06587616202899,-25.3804141706787,3429,0,-359,14829,4768,445,640,112,507780,500,5.606396
-251.91188200051002,-365.20570460718596,-505.230587327387,-735.354255986022,-590.080190481269,-528.876543189166,188.061231771077,-44.037959219072896,3429,0,-359,14829,4768,445,640,112,507781,500,5.606408
-334.013460969843,-455.585579921375,-653.1866997979811,-1098.56477894561,-1380.4028601638902,-806.570094357594,31.7755032309797,-131.029277704307,3429,0,-359,14829,4768,445,640,112,507782,500,5.606421
-304.770828809502,-245.70130359427998,-333.20253144647,-550.899886854721,-709.932394825737,-464.641520549427,-84.797444450378,-205.004167949781,3429,0,-359,14829,4768,445,640,112,507783,500,5.606433
-208.306669815851,-149.727969408035,-106.63836245576401,235.402805656689,660.734301781107,-62.371154092368705,-218.792502101278,-240.284871401149,3429,0,-359,14829,4768,445,640,112,507784,500,5.606446
-356.506804602337,-405.73969599953904,-268.47286001569597,101.605460361432,231.477605180466,-15.9142593534198,-299.430862749636,-293.99674810247996,3429,0,-359,14829,4768,445,640,112,507785,500,5.60646
-318.999193916563,-220.296365770046,-152.014398302068,-39.468749762571,113.646163944039,323.118266602047,-374.08174704574,-353.982570218388,3429,0,-499,14887,4805,679,69,-220,507786,500,5.6064750000000005
-113.010589291982,-41.135161916958204,-55.885465006693295,54.7506742890691,468.31745907577005,516.7923654657791,-259.967681433714,-175.700051710242,3429,0,-499,14887,4805,679,69,-220,507787,500,5.60649
-258.394844833296,-327.295444283169,-261.06615693878797,-3.25807979967794,161.675017422182,-66.10073035978711,-214.843200325733,-141.742719056318,3429,0,-499,14887,4805,679,69,-220,507788,500,5.606505
-378.103519215365,-394.22642404981906,-396.099599172943,-321.897574396746,-480.011951148976,-526.437597465701,-285.548365584458,-260.247059575748,3429,0,-499,14887,4805,679,69,-220,507789,500,5.606521000000001
-295.56571047130296,-375.83768148103303,-502.600078151911,-595.801728629711,-787.718033669866,-978.023966348264,-282.815896127955,-262.98050651489797,3429,0,-499,14887,4805,679,69,-220,507790,500,5.637621
-426.708727688325,-548.463115191204,-769.731523430091,-948.742982512806,-1031.9258560845599,-994.634241257212,-129.057019416417,-273.61947168689204,3429,0,-499,14887,4805,679,69,-220,507791,500,5.637637000000001
-314.71696737720004,-369.11262510332705,-569.4173674675401,-563.854792589933,-498.915217899135,-416.73779354302695,-80.5628065982601,-185.73396307160098,3429,0,-499,14887,4805,679,69,-220,507792,500,5.637648
-216.036349028873,-162.174963239231,-165.87688053934798,91.5168213738361,567.063079744054,127.12718421279,-231.420276304183,-220.175712741213,3429,0,-499,14887,4805,679,69,-220,507793,500,5.63766
-85.78593427047599,15.3537101589609,45.806470458745004,44.0720294972707,55.550736001692705,104.716328454204,-252.19151522370498,-155.797840307234,3429,0,-499,14887,4805,679,69,-220,507794,500,5.637671
-103.23940146362301,-95.5340943178162,-189.36002721404702,-361.524416035099,-484.357230178022,3.0815249753650296,-280.643442855566,-108.11773573025101,3429,0,-499,14887,4805,679,69,-220,507795,500,5.637684
15.6723777457664,29.490718649351003,17.6534776785411,77.67394533444892,39.842123485636,71.6526657686336,-270.96669902571,-35.1914070425555,3429,0,-403,14973,4757,333,-163,-425,507796,500,5.637697
-18.9445881664578,32.7097868236015,101.837841727422,384.185103308293,388.556936697685,-23.609698751592102,-260.406419892854,-93.3551515858853,3429,0,-403,14973,4757,333,-163,-425,507797,500,5.63771
-201.19671587567402,-185.71804775204498,-171.78798345767402,-80.3185964925797,-144.576148269523,-270.718444313039,-112.830812900036,-194.513731266605,3429,0,-403,14973,4757,333,-163,-425,507798,500,5.637724
-495.445839718974,-407.373385352083,-314.790553862927,-63.0140364016697,-66.848150591657,-552.4930769238849,-242.361397144326,-398.744788518874,3429,0,-403,14973,4757,333,-163,-425,507799,500,5.637738000000001
-444.15227458899597,-178.065175821306,-157.871099532815,-56.8543095520872,127.173876995919,-331.866649602191,-238.09666266059503,-392.716828157892,3429,0,-403,14973,4757,333,-163,-425,507800,500,5.637753
-587.262354142644,-818.160297010443,-920.1328503103,-915.328536953224,-800.190308531106,-806.623503604904,-256.732008905616,-358.923841102514,3429,0,-403,14973,4757,333,-163,-425,507801,500,5.6377690000000005
-561.612885742041,-693.989005677984,-703.936888683122,-795.1375021277929,-806.664493649849,-871.959042281145,-348.661792831728,-429.882133082137,3429,0,-403,14973,4757,333,-163,-425,507802,500,5.637785
-413.03715168274397,-453.0853100284,-481.469411199214,-631.697614683711,-523.8460160547979,-343.17794480791804,-241.674385448045,-346.900518233888,3429,0,-403,14973,4757,333,-163,-425,507803,500,5.637802000000001
-278.225556576217,-254.922053435119,-205.11764183396,-234.756085106754,-90.5081014138996,324.10024707904097,-124.088581426302,-244.072881883592,3429,0,-403,14973,4757,333,-163,-425,507804,500,5.6378200000000005
-178.87392331098098,-54.2546924913768,56.85993301938289,96.61919491516892,218.172362383688,511.003387804376,-250.44039234099898,-253.819346961332,3429,0,-403,14973,4757,333,-163,-425,507805,500,5.6378390000000005
-92.68091367805029,73.35291220480579,165.508058810839,88.9600316568103,158.284634664422,612.077779738465,-290.736084955279,-225.67178348009497,3429,0,-167,15045,4757,-412,92,-77,507806,500,5.669271
-27.4355568283936,103.96445485169501,147.580881414004,110.211666733871,207.456909091212,343.186089744675,-325.54843451269,-153.148285764502,3429,0,-167,15045,4757,-412,92,-77,507807,500,5.669297
40.971088878432106,86.4898257801542,124.903054214199,115.29365083575199,309.66928894055303,5.095329947071151,-287.369803286449,-18.9184249171522,3429,0,-167,15045,4757,-412,92,-77,507808,500,5.669316
35.9783985842951,74.19875506754029,177.03449454612598,131.238857907127,-158.82350856281099,-493.735493858927,-515.9806690022821,-75.17585399828391,3429,0,-167,15045,4757,-412,92,-77,507809,500,5.6693370000000005
22.1029281211377,92.86439681099729,267.2640860877,262.254363706481,-335.260690514056,-878.9930372573441,-690.0416328265559,-139.671517374925,3429,0,-167,15045,4757,-412,92,-77,507810,500,5.66936
-250.967913977249,-367.69240466563497,-496.277886780794,-883.352994511544,-873.1925412073621,-934.4500339626101,-428.628504348337,-210.312514578807,3429,0,-167,15045,4757,-412,92,-77,507811,500,5.669383000000001
-449.069117108593,-495.54090216127196,-515.886910602683,-652.193403677549,-593.475572050258,-688.072710559471,-363.24981966265506,-389.37519917043403,3429,0,-167,15045,4757,-412,92,-77,507812,500,5.669404
-415.12345871093595,-422.030406844104,-406.043804864399,-434.826115751086,-301.328435909236,-350.33921321202104,-242.02978368738,-374.39347244286904,3429,0,-167,15045,4757,-412,92,-77,507813,500,5.669427000000001
-228.548494682065,-183.465712055215,-145.513290035422,-164.506421847094,-103.24867189594102,-223.50875441881402,-324.044521798263,-258.222026265343,3429,0,-167,15045,4757,-412,92,-77,507814,500,5.6694510000000005
-112.862973095704,-63.14754218922461,-28.348751377430702,37.85051270516121,315.954470178054,221.732938427711,-205.27935917821,-171.31607410614401,3429,0,-167,15045,4757,-412,92,-77,507815,500,5.669476
-107.92977500020099,-147.05364821280799,-124.31418834836201,-49.513710470259,164.468648232461,234.09493171435298,30.2665455953102,-117.288548187818,3429,0,-5,15063,4760,-770,470,2,507816,500,5.6695020000000005
53.95796461755529,28.467852387460898,-50.1394811429782,-151.684942464635,-62.6441074586473,150.893723796704,243.988627579412,-5.30007663590368,3429,0,-5,15063,4760,-770,470,2,507817,500,5.669528000000001
-105.170594130817,-63.533902286319105,-49.4325660511386,-200.899520575738,-187.543633183115,-79.3425974606071,257.276703849144,-94.4528917787829,3429,0,-5,15063,4760,-770,470,2,507818,500,5.669557
-257.339125836676,-272.640069846762,-292.200377938105,-397.55982963790296,-399.31949667405604,-447.812626735191,-120.15354031830799,-255.032155003166,3429,0,-5,15063,4760,-770,470,2,507819,500,5.6695850000000005
-118.417140323174,-122.36934565938999,-146.351527858293,-284.681081805553,-368.94222084054496,-573.164591151639,-371.6287416626,-205.903154688422,3429,0,-5,15063,4760,-770,470,2,507820,500,5.669615
-355.867689922248,-466.868529855739,-407.76675311266405,-493.187077484152,-517.804147160146,-687.984979369445,-442.068400979624,-290.541592240683,3429,0,-5,15063,4760,-770,470,2,507821,500,5.669646
-444.25833417047403,-405.57385548192497,-142.197184038581,48.2272640362207,-679.692991585063,-828.1756693229539,-463.91125759948,-434.730204368127,3429,0,-5,15063,4760,-770,470,2,507822,500,5.700963000000001
-209.553947906941,-58.8297784024617,131.986532701296,343.385772539274,-253.223225960392,-480.641260972945,-316.526276864053,-351.52075363439496,3429,0,-5,15063,4760,-770,470,2,507823,500,5.700979
-384.214516110515,-572.029019364156,-856.3354230464901,-1175.76079966361,-237.51768782251702,60.3275644944515,-57.682320240768604,-263.374139505439,3429,0,-5,15063,4760,-770,470,2,507824,500,5.701003
-276.442429443036,-240.07521633862098,-254.21269964217203,-314.74924786426703,21.4688790200744,205.98370383121102,-123.048546977516,-267.742609953857,3429,0,-5,15063,4760,-770,470,2,507825,500,5.701031
-181.930291770404,-212.36875218141398,-233.984555838979,-258.480786892556,-74.56575829611391,124.23242821800501,-0.7693637470365501,-180.621365972795,3429,0,-36,15084,4677,-688,549,181,507826,500,5.70105
25.6895544464933,101.198978595203,100.023986393004,30.6255197217979,124.75069222145201,206.471564214327,2.7207876303000402,-111.47467750345801,3429,0,-36,15084,4677,-688,549,181,507827,500,5.701064000000001
2.15402820112649,6.392224415321831,9.50288801454008,-41.6283447741589,27.4243208384141,6.4454149175435305,51.8795767226839,-50.14333139325029,3429,0,-36,15084,4677,-688,549,181,507828,500,5.7010760000000005
-113.506079007027,-139.899403188727,-123.61300782975701,-181.54677577572897,-324.080525572295,-464.363322530291,13.966517809254599,-135.656616280437,3429,0,-36,15084,4677,-688,549,181,507829,500,5.7010890000000005
-121.386538070248,-28.965884197154104,251.74887645361,448.455066570808,-415.790332841978,-815.987389130634,30.1886617065175,-235.002898360486,3429,0,-36,15084,4677,-688,549,181,507830,500,5.701103000000001
-421.32523129749495,-551.439180962974,-519.40104452509,-555.196950858313,-522.238512349315,-678.240238841041,39.2508179959841,-309.249431151082,3429,0,-36,15084,4677,-688,549,181,507831,500,5.701117
-394.53427239824697,-646.0178661161341,-632.978028884274,-797.00906130037,-490.199910685362,-433.868297834182,-23.3514643405797,-276.22580191015703,3429,0,-36,15084,4677,-688,549,181,507832,500,5.701131
-471.412009090389,-655.915437274845,-393.325667924946,-377.91015928063996,-225.01179437706,-208.43094993534,-137.83961701591002,-352.91581988777,3429,0,-36,15084,4677,-688,549,181,507833,500,5.7011460000000005
-344.586974698439,-458.964450426167,-279.875151527813,-257.185217418359,-55.5448772685486,23.1430694201263,-233.005220935855,-347.147105894983,3429,0,-36,15084,4677,-688,549,181,507834,500,5.701162
-139.832488035318,-163.092826555716,-153.917957424419,-171.745151185169,59.1393929261249,150.462204465875,-294.17964500113203,-273.862064386485,3429,0,-36,15084,4677,-688,549,181,507835,500,5.7011780000000005
-78.74142540458709,-51.771420228295,-85.1774479093729,-122.146427470609,60.0958562833257,90.35494325193581,-301.91003954981005,-221.356375152012,3429,0,-127,15124,4594,-506,432,138,507836,500,5.701195
-48.2225564985711,-22.331593709182897,-1.39207572082523,-54.2811126112647,47.125569912546794,13.107313188142099,-223.076127496781,-158.566474501975,3429,0,-127,15124,4594,-506,432,138,507837,500,5.701213
0.798269276914652,97.17238094634381,60.47838213597421,-76.6983235449588,-46.1780432491214,-119.819714134093,32.6626561523881,-148.229268838186,3429,0,-127,15124,4594,-506,432,138,507838,500,5.7333810000000005
-86.93634005505008,-62.0750133594265,-192.449984459206,-387.01900430800697,-395.69497194624296,-548.212208809797,45.7136838216684,-218.50878573011101,3429,0,-127,15124,4594,-506,432,138,507839,500,5.733396
-182.515640775266,-294.85603598028,-372.65003612102004,-518.54992603822,-609.657161644427,-864.9026536750611,-33.8184648823808,-151.758851524675,3429,0,-127,15124,4594,-506,432,138,507840,500,5.733407000000001
-233.169367189636,-319.013082313701,-367.73584589618304,-518.23720636472,-747.386286310502,-927.180329535739,-47.7625950956717,-140.4925704255,3429,0,-127,15124,4594,-506,432,138,507841,500,5.733418
-100.332075649174,-125.225509015028,-167.10057922510902,-302.265117858158,-548.473656264134,-680.582571086474,-171.83655666053502,-139.29893169459,3429,0,-127,15124,4594,-506,432,138,507842,500,5.733429
-57.593115643656304,-13.3527105821995,26.067013578256603,-9.47849026502809,-47.9371332313167,-222.38838548050302,-143.304928352649,-151.03343560244,3429,0,-127,15124,4594,-506,432,138,507843,500,5.733442
-132.647673795524,-90.694483065512,29.9970400630264,134.565284175653,501.00670326309006,389.092080673436,-149.905095703085,-202.365326945204,3429,0,-127,15124,4594,-506,432,138,507844,500,5.733453000000001
-192.847311831778,-136.26073224796002,-21.772979424800702,111.843103518389,411.05313597823306,378.786020194297,-246.84787170635502,-271.929434762103,3429,0,-127,15124,4594,-506,432,138,507845,500,5.733466
-8.81978309570695,118.858764078934,153.678501954069,119.212674059381,194.013496707426,255.306723681511,-96.12128167867192,-127.95246607658899,3429,0,-329,15103,4713,-128,134,161,507846,500,5.733479
-52.670417385321294,-62.4856681500096,-15.9095195910195,-9.657702524214981,-57.092013339919504,25.041054426808802,7.01450320397271,-43.4057210047031,3429,0,-329,15103,4713,-128,134,161,507847,500,5.733494
-6.53422111345571,26.748444065218802,90.8948417186039,154.249270398286,9.95804873062298,-90.0567502403865,45.2623093617149,-34.4440489781555,3429,0,-329,15103,4713,-128,134,161,507848,500,5.733507
-249.160330295301,-256.793941626558,-214.05533055483798,-202.63220766227502,-143.44751708785802,-321.969507822185,-75.968696834927,-192.54231239703898,3429,0,-329,15103,4713,-128,134,161,507849,500,5.733522000000001
-355.584790597204,-295.30507918808104,-280.66481867129903,-500.393017237511,-665.599115573452,-705.0042213232949,-129.101810312481,-291.02143435960204,3429,0,-329,15103,4713,-128,134,161,507850,500,5.733538
-118.817570477986,4.5500239745015305,-48.3076043187175,-284.623969201901,-454.775533256587,-627.098463442293,-156.722684878274,-231.24743681773498,3429,0,-329,15103,4713,-128,134,161,507851,500,5.733553000000001
-335.16946118229,-481.41791141824797,-477.703914333601,-296.12490016321,22.7384044305654,-383.19160189351504,-329.079443086637,-325.247741294908,3429,0,-329,15103,4713,-128,134,161,507852,500,5.733569
-145.345448539418,-127.545148839126,-109.70347238681299,27.4219041873876,338.270173619618,115.064713100321,-342.259017704462,-230.243379533757,3429,0,-329,15103,4713,-128,134,161,507853,500,5.733895
181.23825631884398,267.625845244154,279.543151524034,212.771489083156,346.755751064571,378.532731886604,-333.39816251694,-35.0542622611392,3429,0,-329,15103,4713,-128,134,161,507854,500,5.763772
403.36815645179,494.877123781014,577.462038370431,486.229024802567,488.28375970537303,346.53435144166,-197.435356558708,187.51113107393002,3429,0,-329,15103,4713,-128,134,161,507855,500,5.763787000000001
548.177341420203,671.571291761007,874.6191502253059,850.658491553011,821.805759578594,638.883253126987,12.3620326382224,299.965212115669,3429,0,-315,14890,4671,-510,242,-890,507856,500,5.763798
526.194786237029,743.676720139803,887.794652342098,903.4360536349119,903.6877305384261,780.4818389546131,280.157546790782,266.910007560742,3429,0,-315,14890,4671,-510,242,-890,507857,500,5.763809
285.84192030856497,485.922514259466,528.115936512011,499.38955305310094,451.863714671636,371.73360042751295,473.048154187563,159.726148301037,3429,0,-315,14890,4671,-510,242,-890,507858,500,5.76382
-174.119841756474,-147.249298266484,-142.10946394340098,-197.75476127796,-206.00368684926102,-290.29887801664904,337.562639212818,-68.3562763873488,3429,0,-315,14890,4671,-510,242,-890,507859,500,5.763832000000001
-253.68850337114398,-176.26062737486802,-212.680595297134,-373.41242083342496,-497.899012793496,-593.260185037274,148.106008818955,-197.194376791827,3429,0,-315,14890,4671,-510,242,-890,507860,500,5.763844000000001
-281.57251254620496,-440.420621297788,-559.6173148406671,-675.0551186708329,-841.779459134152,-759.252888125484,-49.92173984320829,-226.034951571259,3429,0,-315,14890,4671,-510,242,-890,507861,500,5.763857000000001
-458.15920642082295,-678.408388493815,-815.743668196257,-877.504828795791,-889.171155912336,-755.199795282446,-150.07495125947798,-314.131279309979,3429,0,-315,14890,4671,-510,242,-890,507862,500,5.763870000000001
-369.179978072643,-489.06792955414903,-625.4287167051809,-661.012265153608,-741.161878913816,-639.868105612462,-88.9784281791071,-259.00943361478903,3429,0,-315,14890,4671,-510,242,-890,507863,500,5.763884
-487.996649310866,-585.290423800005,-665.033746363129,-677.74642693557,-861.2958416806069,-580.607600116404,-129.009751240374,-324.809078304213,3429,0,-315,14890,4671,-510,242,-890,507864,500,5.763899
-418.486113211053,-457.689179768553,-498.412625018973,-461.708396826521,-418.429154440702,-172.26566079514998,-145.679944428091,-294.37464286515,3429,0,-315,14890,4671,-510,242,-890,507865,500,5.763914000000001
-284.239940125553,-291.913590613869,-344.78389455634203,-431.199413638125,-446.149752022582,-221.17082308186198,-104.49896366318,-206.67143427953098,3429,0,-41,14959,4585,-66,821,-764,507866,500,5.763929
-375.251971417369,-441.226803773665,-529.940115072182,-509.37284903659,-550.025139897247,-331.068858655402,-100.596756444487,-238.31114719505402,3429,0,-41,14959,4585,-66,821,-764,507867,500,5.7639450000000005
-236.55109428931598,-241.84065797994802,-264.583774536615,-49.9270937122055,-60.3089890476549,-218.969844308798,-98.72682527545841,-139.365636923118,3429,0,-41,14959,4585,-66,821,-764,507868,500,5.763962
-237.703741986334,-291.38400097948,-406.985513235559,-455.80738966472603,-748.3328253399809,-642.897610636777,-111.782566442213,-125.12496079434601,3429,0,-41,14959,4585,-66,821,-764,507869,500,5.763979
-244.795147754456,-283.653685929021,-483.993235266767,-826.788852934609,-1274.69845480419,-1151.93713056215,-158.458257868886,-149.813315762789,3429,0,-41,14959,4585,-66,821,-764,507870,500,5.79422
-358.119245441194,-465.814316842007,-598.776415311382,-830.3877361464259,-1374.08623740997,-1349.4945536222099,-208.51983994041802,-164.250026632333,3429,0,-41,14959,4585,-66,821,-764,507871,500,5.794245
-339.833359341632,-504.569911234546,-666.3903831496141,-847.821547450614,-1074.68046311027,-834.003381210612,-147.642244099814,-131.793935422902,3429,0,-41,14959,4585,-66,821,-764,507872,500,5.794264
-413.18714963243104,-328.172540991916,-232.285731032141,-88.8885425313201,773.26023443602,575.417276246124,-122.300204543106,-245.818682777812,3429,0,-41,14959,4585,-66,821,-764,507873,500,5.794284
-140.77874156402,-31.7343230888946,68.21374103310521,271.021985435538,1036.91843024531,685.2820598111721,-163.85083461465499,-162.641848061583,3429,0,-41,14959,4585,-66,821,-764,507874,500,5.794304
117.302191868512,309.696838876815,474.27004283666605,653.258530536346,1154.14396420051,996.472227345919,-119.413979486562,-53.66618083510549,3429,0,-41,14959,4585,-66,821,-764,507875,500,5.7943240000000005
253.899846501503,447.109116060543,618.8504379809599,752.4471857468599,1084.0297727905,985.73840366269,27.8222538563423,99.66305159265181,3429,0,-110,15198,4511,63,982,-135,507876,500,5.794345000000001
158.232595723966,298.57643593219103,424.721071077278,478.706561998551,736.499668457953,729.644618778024,113.593958578596,111.949146290426,3429,0,-110,15198,4511,63,982,-135,507877,500,5.794366
161.140948486747,325.792491161963,380.07374455675006,388.233659362828,554.26746237278,461.814068839536,181.39641800592702,133.021138936398,3429,0,-110,15198,4511,63,982,-135,507878,500,5.7943880000000005
110.344361308787,160.862863689894,117.34487358178,102.113572074333,186.471148482524,12.473214195808401,25.745889065146898,43.51893254253079,3429,0,-110,15198,4511,63,982,-135,507879,500,5.794411
-272.727219606866,-256.41250992287,-282.225914253504,-303.662042353157,-233.383042884641,-413.369406747865,-143.861853818235,-232.685340098338,3429,0,-110,15198,4511,63,982,-135,507880,500,5.794435
-449.27387529562105,-462.761482264148,-542.640112005523,-625.852532581775,-518.797996163019,-629.166228713351,-242.77742762555098,-346.43188870255796,3429,0,-110,15198,4511,63,982,-135,507881,500,5.79446
-400.005308518477,-435.96631292149004,-531.469518591068,-609.102514808445,-467.72338041372103,-505.36354563944,-244.054847341613,-270.92635233281203,3429,0,-110,15198,4511,63,982,-135,507882,500,5.794485000000001
-232.086752525094,-253.47048734966702,-301.793389606173,-373.913590659213,-191.68782046559502,-116.7630596034,-221.456829447648,-193.37184813362498,3429,0,-110,15198,4511,63,982,-135,507883,500,5.794510000000001
18.2124048402766,120.53683086670901,140.669366587419,143.558186845446,262.763745083241,345.495188421686,-165.344949999242,-55.165975369163796,3429,0,-110,15198,4511,63,982,-135,507884,500,5.827787000000001
-54.6011464018666,109.26405717677,171.15897823427798,221.28885738234402,339.86878173187097,407.450008930056,-203.33944938285302,-101.533144541434,3429,0,-110,15198,4511,63,982,-135,507885,500,5.827848
-52.9660479663289,150.796322101844,223.123544218601,233.44665117401698,304.698027203325,397.06543135806,47.334918319771496,-52.9114087350899,3429,0,-332,15145,4554,230,297,-95,507886,500,5.827897
-36.4430962089973,107.33558959956301,136.299699405441,146.068834084319,228.217181319837,326.176433939021,172.646258943889,13.986402456532199,3429,0,-332,15145,4554,230,297,-95,507887,500,5.827941
-12.1750802200404,-3.16137084783986,-30.9324466160033,-32.6419586396078,36.4141467969166,13.685797243029802,81.7367638685391,8.49852464580908,3429,0,-332,15145,4554,230,297,-95,507888,500,5.827993
-241.614942590415,-263.327775032143,-310.355835448019,-358.18170355638705,-351.744369461725,-470.796139415586,-110.396542796574,-197.657903375453,3429,0,-332,15145,4554,230,297,-95,507889,500,5.828053000000001
-213.78107354659,-233.04226106486698,-284.178789084544,-317.918467223586,-372.32443847309304,-567.610908873146,-98.3956965366961,-173.664233498741,3429,0,-332,15145,4554,230,297,-95,507890,500,5.828113
-250.879910144897,-241.88190953515,-325.892235261388,-383.48266426089697,-493.995020735776,-695.988031251705,-165.046810586762,-214.556887383806,3429,0,-332,15145,4554,230,297,-95,507891,500,5.82815
-203.03718673510602,-204.88935170462398,-295.52225375839,-338.90097161629797,-447.177446781483,-620.0104567044181,-172.2280916085,-197.29317929735402,3429,0,-332,15145,4554,230,297,-95,507892,500,5.828223
-71.315515620372,-49.101158752921,-73.7269014655612,-34.501186435925796,8.49648821685696,-28.2092873682268,-114.71942906582301,-140.487466034712,3429,0,-332,15145,4554,230,297,-95,507893,500,5.828344
21.995423794112895,67.974892473314,106.54549679195,180.636480965302,406.804906933743,532.352768447832,-226.861291509005,-115.19175567489599,3429,0,-332,15145,4554,230,297,-95,507894,500,5.828436
240.346027089894,309.792029163684,352.137251899228,396.06169894381304,604.355343027157,719.201361054671,-181.57567993050898,126.429274384514,3429,0,-332,15145,4554,230,297,-95,507895,500,5.828461000000001
175.72402621473898,240.515895401128,311.43059548724,403.07570640891197,672.215570105065,716.8641050119189,-162.685866878193,86.77906496985821,3429,0,-468,15001,4880,-767,-202,-324,507896,500,5.828485000000001
-41.134807423222796,-2.8039111763937403,48.6208920973586,150.618531847838,349.65345675515704,422.36650618305396,-7.882323760481089,-43.8040617742809,3429,0,-468,15001,4880,-767,-202,-324,507897,500,5.828511000000001
-51.5659447819635,-77.1294438820332,-90.6654973411933,-55.960820681444595,57.936874685401605,130.536225396092,267.219161396439,47.856903291190996,3429,0,-468,15001,4880,-767,-202,-324,507898,500,5.828539
-49.9398415433825,-128.66136825783198,-187.465348276892,-233.12710139202002,-239.082791203167,-262.991956672864,254.66330789472,47.9404333084822,3429,0,-468,15001,4880,-767,-202,-324,507899,500,5.828579
-106.96311605820699,-194.450917550246,-274.10530848533404,-329.565858497634,-408.165662862884,-475.702418506844,207.473139016714,23.177382441354,3429,0,-468,15001,4880,-767,-202,-324,507900,500,5.855639
-190.101247084531,-275.311210270389,-357.665077821119,-419.818644413375,-550.277387132868,-617.169433349045,94.28313244733731,-87.7332673827186,3429,0,-468,15001,4880,-767,-202,-324,507901,500,5.855653
-234.43134703656003,-312.41984282597,-412.34243970341004,-490.046719774633,-566.37457173923,-418.971885161474,81.8775519391638,-134.64942686608998,3429,0,-468,15001,4880,-767,-202,-324,507902,500,5.855664
-129.136721368093,-162.228511934285,-282.47776161495096,-366.591795581509,-436.16781454678903,-108.952134138788,77.5736481840722,-56.756138080149,3429,0,-468,15001,4880,-767,-202,-324,507903,500,5.855675000000001
-11.239482394477802,-14.900125883286801,-94.5989520396106,-198.95184398454103,-559.981499915244,-116.823405484552,95.18286562222059,-10.639475082629401,3429,0,-468,15001,4880,-767,-202,-324,507904,500,5.8556870000000005
13.761259707796901,-13.5041769208619,-131.661795502761,-314.627742646204,-737.876844207814,-105.710619268822,100.64349268435,-2.86065012298059,3429,0,-468,15001,4880,-767,-202,-324,507905,500,5.855709
169.62376592829202,126.005602316931,-27.144667642889498,-161.529008322192,-267.586632653547,192.460214404971,172.61298069224,100.22078929015,3429,0,-309,14976,5027,-1151,-1,-388,507906,500,5.855722
297.695830516663,321.405548613169,311.586201773956,469.64364584523696,592.352194118139,302.06318430614203,170.139729721122,161.26743641425898,3429,0,-309,14976,5027,-1151,-1,-388,507907,500,5.855735
523.531502367608,614.721139463712,661.974775715847,882.2416900699319,658.456947927014,214.51758394739602,289.921481766738,332.845000177156,3429,0,-309,14976,5027,-1151,-1,-388,507908,500,5.855749
545.78969030673,722.494170752238,913.555891413591,1282.69644619417,990.0343675892219,437.111914749024,234.29044719052,273.705230940715,3429,0,-309,14976,5027,-1151,-1,-388,507909,500,5.855772
569.736002140387,893.4865147005769,1387.53987114504,2053.7361645230303,683.422139285307,45.755415905267,140.588826712337,230.199445047183,3429,0,-309,14976,5027,-1151,-1,-388,507910,500,5.855787
289.27456333334,304.080071835313,282.450025722384,193.564016647841,362.724585966731,166.09491605428002,227.919896721316,205.115353694768,3429,0,-309,14976,5027,-1151,-1,-388,507911,500,5.855802000000001
127.578697591409,18.158495240379104,-266.265263378737,-519.459178497433,158.310946860816,445.91201864602004,195.89564263529599,122.699176835828,3429,0,-309,14976,5027,-1151,-1,-388,507912,500,5.855818
385.27049378957605,539.747485010419,529.46464635001,576.116626797448,816.0343104700439,858.3605605565241,152.338661143964,150.619475816959,3429,0,-309,14976,5027,-1151,-1,-388,507913,500,5.855834000000001
337.630296084681,482.40393044275703,549.058466785937,803.366670575197,1223.03803305095,1035.0757053399,175.90063582808898,132.472873058869,3429,0,-309,14976,5027,-1151,-1,-388,507914,500,5.855851
-111.895468195667,-173.47145994415,-139.16128852311502,178.09426907144402,701.7208887029559,606.339462776668,86.8681422139052,-45.445466242730596,3429,0,-309,14976,5027,-1151,-1,-388,507915,500,5.85587
-210.973284499167,-373.96376178436896,-488.857451541582,-404.59570719959396,-386.505271340837,-105.253005396924,47.637630512996104,-56.1783271339955,3429,0,-88,14960,4853,-805,589,-569,507916,500,5.888353
-209.430929550406,-410.950782275177,-615.543309788685,-734.537948896002,-629.361054172914,-37.8017353980104,79.45113951613891,-59.8187300026184,3429,0,-88,14960,4853,-805,589,-569,507917,500,5.88837
-156.224812377099,-260.63549244392203,-271.574744407902,-244.465416877851,-1155.3583339905001,-500.85806900134804,52.23321948200461,-35.5864295354113,3429,0,-88,14960,4853,-805,589,-569,507918,500,5.888380000000001
-58.958412334992296,-149.949447090039,-280.69588805874804,-406.43831579166,-1479.96745420602,-1110.15536729014,-61.1027834446286,-40.4739837846719,3429,0,-88,14960,4853,-805,589,-569,507919,500,5.888391
-188.48475048740502,-319.882451465935,-476.516416804981,-420.29187708138494,121.440453808464,-272.855701386114,-35.8840824450599,-128.773602721514,3429,0,-88,14960,4853,-805,589,-569,507920,500,5.888403
3.60011020980892,-57.3886736204149,-92.5062900572084,53.973474510829,493.456273444986,28.3068354780553,171.870415049081,31.4773241532966,3429,0,-88,14960,4853,-805,589,-569,507921,500,5.888415
100.867703525641,-13.8135633583879,-80.9741088432493,-18.2838101898087,-256.16375273664,-79.74108531267849,277.649139976245,169.850904975319,3429,0,-88,14960,4853,-805,589,-569,507922,500,5.888427
-227.41298241660098,-265.92471453070203,-379.63160193315696,-284.41231202808603,-241.165432945068,-128.799309967086,-151.545726073673,-225.164422363741,3429,0,-88,14960,4853,-805,589,-569,507923,500,5.88844
-153.09297666678302,-23.966450964566302,-28.6095371816773,152.391091090016,758.457614776387,612.7884411299599,-163.96397657221002,-259.476865711971,3429,0,-88,14960,4853,-805,589,-569,507924,500,5.888453
-187.019658225734,-121.90876838203998,-72.5121400265489,126.610502554715,619.65325437428,584.87542947859,-162.308269617148,-248.632058949559,3429,0,-88,14960,4853,-805,589,-569,507925,500,5.8884680000000005
-127.10318193055001,-160.98593235760902,-206.294561497052,-55.865021814970504,323.558543728082,440.025983946514,-34.4610937021789,-112.700894741341,3429,0,-171,14801,4730,-672,458,-470,507926,500,5.888483000000001
-27.186348169401803,-65.4130440457957,-92.9429071447812,53.120535269757994,345.17254258773806,355.59916044364195,27.1973928404041,-33.118839055532604,3429,0,-171,14801,4730,-672,458,-470,507927,500,5.888498
-2.05341646872694,-65.4369835308753,-20.7529732929543,141.861836452241,369.484326711448,220.53788702411097,67.21616011369039,15.658320762333501,3429,0,-171,14801,4730,-672,458,-470,507928,500,5.8885130000000006
-28.9090663982497,-60.4893254565541,-60.7633038375061,41.671339466935,143.053951564303,-78.8010456018383,71.9514232272049,-7.72398648911621,3429,0,-171,14801,4730,-672,458,-470,507929,500,5.888529
104.564937484305,190.847997546662,89.53393086441791,150.42334145942,112.23236530408,-139.874672517763,149.16820882254999,46.698213249445,3429,0,-171,14801,4730,-672,458,-470,507930,500,5.888546000000001
105.193530185177,199.54632334690498,86.90133292367679,80.9245283429918,-183.53898607677502,-352.223315889016,43.5593034204212,-12.8481098415796,3429,0,-171,14801,4730,-672,458,-470,507931,500,5.888564000000001
17.3667273254541,-7.51474523264915,-190.969518307364,-204.346259491227,-377.22871431155403,-334.33847018203204,-13.0326639330015,-35.875458746915704,3429,0,-171,14801,4730,-672,458,-470,507932,500,5.923495
-34.5828713242954,-11.2530281231739,-126.495393558755,-67.6794350787532,-78.5679639459122,23.1973769805627,-42.0862598535605,-57.6200924080331,3429,0,-171,14801,4730,-672,458,-470,507933,500,5.923509
-81.9073906047561,-63.6377542093396,-176.10852362634603,-108.609718354535,-72.8139217728749,150.687063488294,-32.0192835295456,-19.466145577724102,3429,0,-171,14801,4730,-672,458,-470,507934,500,5.923520000000001
1.54304642227362,39.6586072265636,-32.3084063284332,48.7308991614555,101.80798906116999,375.95339731127,16.679339228430802,34.112045600079,3429,0,-171,14801,4730,-672,458,-470,507935,500,5.9235310000000005
98.85750264069071,164.519630314549,96.7785261344397,51.067835718771704,-115.303283659916,262.505652758642,59.8004363436485,88.01356969866899,3429,0,-442,14600,4648,-138,223,-389,507936,500,5.9235430000000004
188.990356913826,407.06450992019404,421.011410102714,398.20354452112196,322.198774124787,355.176058809389,71.5745639964589,110.432393396157,3429,0,-442,14600,4648,-138,223,-389,507937,500,5.923554
328.67129368870496,526.321261796518,569.260707132868,740.988661058916,1273.95404645719,822.311372489668,30.5302975910599,151.448101593764,3429,0,-442,14600,4648,-138,223,-389,507938,500,5.923566
90.9589313419128,113.407594438526,125.35106973431499,368.93547685979894,779.798104585614,468.70897213474404,-158.070808594988,11.0838483528933,3429,0,-442,14600,4648,-138,223,-389,507939,500,5.923579
225.88512689509702,280.031221113284,245.465389586287,343.362673908763,356.376010994369,113.541430752026,-154.504956365097,79.1712306552799,3429,0,-442,14600,4648,-138,223,-389,507940,500,5.923592
232.911748340382,218.982689506258,122.58976685441999,123.32147813731001,69.4020660874085,-143.783144644229,-148.990079809446,116.592855220311,3429,0,-442,14600,4648,-138,223,-389,507941,500,5.923606
156.36679754423702,77.2007352854125,-34.531082065543195,-24.4144802183437,121.895321320742,-47.0962182122748,114.83580574661,149.567605817574,3429,0,-442,14600,4648,-138,223,-389,507942,500,5.9236200000000006
18.165576551109602,-38.96378869994079,-117.14500018127701,-101.73608665246901,110.12850590352899,193.472103264416,197.481990537024,35.0502563266782,3429,0,-442,14600,4648,-138,223,-389,507943,500,5.923635
80.43873146793341,92.77293550875041,53.688900663401,96.1858500407543,301.228552896995,488.665943564964,185.676206380536,72.0172925887164,3429,0,-442,14600,4648,-138,223,-389,507944,500,5.923651
94.23125294523199,114.54257042997101,84.2566184679745,103.814351833193,171.93154875026102,397.561965966597,233.635343151749,75.72623837611171,3429,0,-442,14600,4648,-138,223,-389,507945,500,5.923667
112.816570363066,107.21721414220501,49.8457982533146,32.8375613269745,-67.0571455040481,100.88085570838301,152.793138623179,66.467194988043,3429,0,-626,14550,4726,794,61,-429,507946,500,5.923684000000001
96.38425180909691,44.329337648232496,-7.987171903601849,91.9328446259897,196.795618617733,133.84946920955602,82.8919458544697,84.1523188337451,3429,0,-626,14550,4726,794,61,-429,507947,500,5.9237020000000005
147.728102854278,99.4871158190072,80.98308239341709,180.098938056006,369.896042322391,286.64442509471,115.222535465844,132.41942716354998,3429,0,-626,14550,4726,794,61,-429,507948,500,5.92372
47.3755507461901,24.765173910534898,16.7959338400979,24.682870930264503,92.6407344734762,130.452458354761,-13.8420313355164,24.0604233543854,3429,0,-626,14550,4726,794,61,-429,507949,500,5.923738
83.4238191428303,51.3437491920777,38.8718642749591,14.3061083660868,-3.2753080084803505,-122.17500997090201,-39.9321988408919,61.1468544283416,3429,0,-626,14550,4726,794,61,-429,507950,500,5.952313
299.88047306891497,284.287627699901,222.651232894743,142.18910059292102,-35.3874236209667,-83.45649645361121,-41.8450795776444,202.111117082066,3429,0,-626,14550,4726,794,61,-429,507951,500,5.9523280000000005
413.25391507725,417.91800156573305,395.18314537568904,301.263161266339,70.0398461322184,119.743663580273,-77.51980443950741,185.288947614259,3429,0,-626,14550,4726,794,61,-429,507952,500,5.952339
417.8707584925,463.407300704625,489.02654224215104,496.101272415544,486.18414254800905,454.55734552268405,40.290938706020796,141.838431693846,3429,0,-626,14550,4726,794,61,-429,507953,500,5.95235
397.56989677002997,496.385401779553,522.054077023873,589.112188415253,663.582252208667,694.741188223357,116.879050027812,150.59976017603202,3429,0,-626,14550,4726,794,61,-429,507954,500,5.952362
228.44500935715,353.03911253844905,414.53046320367105,452.376844153623,339.87837947573297,652.655696621747,214.36857518315102,129.433382037678,3429,0,-626,14550,4726,794,61,-429,507955,500,5.952375
-16.0890481433889,-23.0550656251144,-45.44035279948729,-27.498679575452105,-113.95221766911001,304.002556067426,231.13255577470403,53.87020265311,3429,0,-628,14719,4845,1385,-34,-266,507956,500,5.952388
-39.938340685825096,-132.102723183576,-221.41639272531003,-142.638115963171,-73.18781762121941,98.81588752695819,143.334763618244,67.6919484888203,3429,0,-628,14719,4845,1385,-34,-266,507957,500,5.952402
-122.11927107081301,-284.502012614743,-432.948546697153,-372.602429955674,-170.066591552983,-293.617861884646,24.827870714012498,-20.0236854043324,3429,0,-628,14719,4845,1385,-34,-266,507958,500,5.952415
-254.943955944269,-348.531078531523,-484.81022661621694,-525.149400987895,-598.633891909383,-688.095672061783,-109.093789628183,-175.21164952020598,3429,0,-628,14719,4845,1385,-34,-266,507959,500,5.9524300000000006
-52.2011975646601,-71.8856595872203,-162.356645885389,-198.772575417068,-430.54679698910303,-481.37254941114196,-85.3206138709211,-99.89313532935921,3429,0,-628,14719,4845,1385,-34,-266,507960,500,5.952445
-254.455450544279,-422.764783572988,-414.33380396757303,-244.14981177699502,-202.929583867197,-330.87436295242503,-219.846624533646,-197.429372937768,3429,0,-628,14719,4845,1385,-34,-266,507961,500,5.9524610000000004
-215.674897961522,-214.735180644086,-56.962829818949096,313.259438659588,534.6262268078859,-10.324484383571,-266.228146608162,-249.021266982891,3429,0,-628,14719,4845,1385,-34,-266,507962,500,5.952477
-246.932408389985,-226.925425780704,-31.9886793787591,387.691102248733,729.3088430684289,220.760648368858,-210.65789923159198,-276.1092102197,3429,0,-628,14719,4845,1385,-34,-266,507963,500,5.952494000000001
