CH1,CH2,CH3,CH4,CH5,CH6,CH7,CH8,Vbat,Trigger,AccX,AccY,AccZ,GyX,GyY,GyZ,N,fs,Timestamp
79.9906659340195,117.25347187055701,206.381244493998,319.930470532185,26.6152292301995,523.1320725515831,-12.3211554191075,-56.5778787062736,3426,0,-1163,14824,4789,536,293,-350,684017,500,11.93135
134.172573239543,90.90260551532259,225.51615946832996,334.29900066927104,34.0824591768614,803.062849268783,138.136069681437,65.9803456204245,3426,0,-1163,14824,4789,536,293,-350,684018,500,11.931370000000001
145.93525879297502,209.96419470466202,383.527752696769,327.606312097603,189.523298189742,782.336256239214,-40.233534011174896,12.106150556705,3426,0,-1163,14824,4789,536,293,-350,684019,500,11.931391000000001
129.720432859234,369.268070056452,628.9882434550669,854.626100154332,738.526603085804,455.76394674560305,-155.75558780244302,-64.94565863383471,3426,0,-1163,14824,4789,536,293,-350,684020,500,11.931415000000001
297.54606737705797,537.499308498111,511.622637020075,632.702557970042,497.57300875877297,212.75163706881,-12.448625429591598,66.6602620421909,3426,0,-1163,14824,4789,536,293,-350,684021,500,11.931441000000001
123.403023869381,-64.5572564511094,-517.550230967114,-1197.3371829321002,-1667.26515582626,-886.82485576591,30.688351369928604,102.214199242182,3426,0,-1163,14824,4789,536,293,-350,684022,500,11.931465000000001
-32.6702526132576,-410.656341731083,-911.7654927711699,-2127.99251538399,-3993.81558329001,-2022.3225518922,135.89145279547702,126.388925971696,3426,0,-1163,14824,4789,536,293,-350,684023,500,11.93149
211.69902647539902,54.5046875705011,-218.832394768368,-880.5756125513001,-1491.36124140388,-1064.64379533427,87.73228426097191,179.075446582632,3426,0,-1163,14824,4789,536,293,-350,684024,500,11.978452
392.389836359856,527.767176878173,398.87506034155405,-68.06261725083459,235.585433701985,26.204361068783303,-99.94714830094021,120.791164664435,3426,0,-1163,14824,4789,536,293,-350,684025,500,11.978502
181.260275293433,-6.59730799519457,45.91289936506661,520.651077978226,1580.22715883129,627.424700534379,-52.7423224230879,83.104913402698,3426,0,-1069,14898,4832,265,296,-180,684026,500,11.978544000000001
281.815245021164,-169.583599230275,-273.824691008427,574.313319049135,1205.72786133498,246.247390365461,142.937028942979,257.553978633136,3426,0,-1069,14898,4832,265,296,-180,684027,500,11.978585
923.6889143558801,1217.72881034936,1648.3579097747597,2606.8254928404604,2379.14591476173,1143.80322536785,234.80504260485802,469.564301319537,3426,0,-1069,14898,4832,265,296,-180,684028,500,11.978628
762.513715994282,1427.96702331735,1917.7218102639301,1757.82693235704,842.777280611655,732.273025601113,55.2176247344469,273.460172291961,3426,0,-1069,14898,4832,265,296,-180,684029,500,11.978675
380.72216394226405,849.4704894702879,869.914124326897,229.701636770769,1322.9915074092598,1171.53129846836,27.9263850502903,40.04437782336029,3426,0,-1069,14898,4832,265,296,-180,684030,500,11.97873
228.27008078061002,327.852106902748,573.5106349126439,747.8927012005299,1695.79487908745,866.9047439094279,36.749724054359795,83.8158411047189,3426,0,-1069,14898,4832,265,296,-180,684031,500,11.978777000000001
-114.080194811075,-421.789380703704,-247.88694009452598,-426.804091226164,32.6588231113856,150.66235744307102,-21.119563739222897,-0.16211801301688,3426,0,-1069,14898,4832,265,296,-180,684032,500,11.978826000000002
-231.539110412006,-664.186042928486,-475.68825471634005,-729.2116920437841,-433.113966982841,-118.399520851148,38.0029532719054,-9.55414402030874,3426,0,-1069,14898,4832,265,296,-180,684033,500,11.97888
-255.103731929295,-575.5933685859201,-288.221458268352,-430.57275737321504,-384.255180991051,-231.05982939427503,9.92974139010767,-75.47204715386029,3426,0,-1069,14898,4832,265,296,-180,684034,500,11.978942
43.609720156237,113.132056580042,258.63923878560297,55.1530043060775,-277.360429466818,-317.460533827834,-6.862077618076,-2.4330852879211298,3426,0,-1069,14898,4832,265,296,-180,684035,500,11.979005
461.815718657977,703.8151955482319,297.81256334309,-59.449331271986,108.446771254909,301.79628532863,-31.3939043512219,89.568799838773,3426,0,-939,14992,4859,134,540,10,684036,500,11.979064000000001
433.55776783323404,487.128619853524,223.197938692407,161.280549287796,536.137899696041,755.3024351713831,-121.20540472935,66.1374454272445,3426,0,-939,14992,4859,134,540,10,684037,500,11.979124
389.73574763830396,392.37843083520403,304.53075157222304,259.998112835514,557.987311833567,957.6603166210699,-78.7160907988437,104.60837231006,3426,0,-939,14992,4859,134,540,10,684038,500,11.979186
272.908454455639,379.28952053911104,520.9791875114901,659.571577486116,993.93418003968,1087.89137794252,-104.32903482270201,-10.442150029353801,3426,0,-939,14992,4859,134,540,10,684039,500,11.97925
324.478748347698,390.199092767434,583.654779805802,917.9861221215981,1026.89951437921,607.286987292639,50.2500407214975,110.468590058736,3426,0,-939,14992,4859,134,540,10,684040,500,11.979318000000001
283.967653833126,75.00834028481042,-10.347752019879401,50.2043210531701,-177.80122168009999,-281.731723272707,134.328295118117,203.033934541745,3426,0,-939,14992,4859,134,540,10,684041,500,11.97939
-71.06625637432441,-441.95478776446504,-647.613138395594,-898.1673999525369,-627.10991193683,-406.37779095291603,39.470741008990395,42.023818815592705,3426,0,-939,14992,4859,134,540,10,684042,500,11.979465000000001
-350.11404501705005,-809.3453677496871,-1149.6955352697998,-1648.8302297718499,-1817.0865670935898,-913.0374212921009,-64.1412598550669,-113.002294293256,3426,0,-939,14992,4859,134,540,10,684043,500,11.979536000000001
-173.508840905182,-163.463812670903,-24.662728513241703,29.717963672213997,-239.454520133993,-274.50091838283697,-222.10664744617,-232.30066162650502,3426,0,-939,14992,4859,134,540,10,684044,500,11.979612000000001
-120.33929073441001,65.9287786025088,345.980854633031,671.6948772811741,1074.02414318174,-90.1196579881362,-274.741064192785,-269.606689601322,3426,0,-939,14992,4859,134,540,10,684045,500,11.979739
139.863980930531,147.367212001001,232.00287908723098,369.519548386743,96.37294500242571,-604.653524896363,4.21009810571559,27.462480638408998,3426,0,-983,15054,4888,68,433,100,684046,500,12.041654000000001
171.231987083069,52.88352981524079,-52.478967671049794,-61.0650199273368,-464.618561108917,-309.79126738593897,28.259793189878103,122.071569729247,3426,0,-983,15054,4888,68,433,100,684047,500,12.041730000000001
206.17654244098202,138.451998922625,81.97974879527459,81.1589978286065,-213.65178919048,199.03139068943,13.251946305099402,132.019720496843,3426,0,-983,15054,4888,68,433,100,684048,500,12.041780000000001
148.258223635377,252.75886061647898,370.77431799110497,464.07785510440596,585.718520625465,626.961181070423,-41.31885628931921,16.6264299119357,3426,0,-983,15054,4888,68,433,100,684049,500,12.041831
16.5263912697847,47.629552591708496,159.074785224744,65.08709148768679,305.812458284636,252.53794610349,-61.4191937285941,-34.7204861160135,3426,0,-983,15054,4888,68,433,100,684050,500,12.041894000000001
-173.18582213865002,-126.12136299302799,34.4811121714301,-221.599100543506,10.508637022576302,-103.307016583858,-82.2598583635991,-160.949545930023,3426,0,-983,15054,4888,68,433,100,684051,500,12.04195
-304.872356560401,-444.772008925793,-221.720011087949,-284.084837766364,-93.2898472091765,-547.122600677831,-261.836445939902,-258.76481543423097,3426,0,-983,15054,4888,68,433,100,684052,500,12.042007
-399.127585819137,-622.288965544198,-130.876828346634,27.8694822143298,-78.5263932140369,-842.274964523851,-407.360359237762,-310.62985057442,3426,0,-983,15054,4888,68,433,100,684053,500,12.042066
-441.50905351445505,-580.928019013489,131.748907777714,477.03904951692704,393.17906664504,-313.867792732257,-370.189191011945,-331.028882996528,3426,0,-983,15054,4888,68,433,100,684054,500,12.042128
-532.0375153575151,-858.0595993411259,-351.238619888201,65.95895035463039,270.68072863400397,-126.939459891233,-201.29943147860502,-265.698008977808,3426,0,-983,15054,4888,68,433,100,684055,500,12.042193000000001
-203.04741715177101,-591.0987697013189,-386.95755595737097,-13.0477141514712,-238.853286122758,-446.169839020935,-135.872960899316,-121.672849321971,3426,0,-1092,15094,4907,-238,34,92,684056,500,12.04226
-138.519249073957,-630.5411256001099,-647.795664605801,-361.366233383073,-284.891669999895,8.75714564410737,8.2415082550724,-8.26011933549307,3426,0,-1092,15094,4907,-238,34,92,684057,500,12.042333000000001
-484.21493026640405,-593.941477758461,-460.1527251731599,-327.697248608194,5.542284686991481,649.7957700615519,140.618514996197,-166.562331650173,3426,0,-1092,15094,4907,-238,34,92,684058,500,12.042404000000001
-459.87599677484803,-174.189514649566,-48.2608336168341,-3.26820018797298,-136.949259236397,327.81354899780104,85.5063498459058,-270.212606268935,3426,0,-1092,15094,4907,-238,34,92,684059,500,12.043629000000001
-269.867333195958,-333.064110151841,-413.651541777886,-597.137013903237,-1521.8263628325901,-829.87628127489,-42.4581634728238,-144.990015456919,3426,0,-1092,15094,4907,-238,34,92,684060,500,12.043718
127.45958776967,-127.224248774,-402.801977853291,-821.842625236721,-1716.72904956815,-902.81178285426,-50.567205357714606,64.1366857925896,3426,0,-1092,15094,4907,-238,34,92,684061,500,12.043816000000001
-381.508116336307,-689.1345235611079,-186.366618889384,403.18467310132104,443.066968266648,-619.039891666151,-233.472344293667,-140.761626538006,3426,0,-1092,15094,4907,-238,34,92,684062,500,12.043909000000001
-1349.17821231254,-2047.9414652251899,-1050.8414685895,257.428301882057,1591.07188583544,-18.8011061938014,-182.54135318100498,-444.45780275261495,3426,0,-1092,15094,4907,-238,34,92,684063,500,12.043994000000001
-989.984954910324,-1837.4678304506199,-1350.96300347312,-740.1460427157871,155.84416567283898,-46.154938509455,72.4725156195927,-175.921165484469,3426,0,-1092,15094,4907,-238,34,92,684064,500,12.044091
17.6529044110503,-232.343197510112,-385.22589746606496,-153.127201941621,313.621057242941,-52.2966983405058,78.84364156122321,15.731710236985199,3426,0,-1092,15094,4907,-238,34,92,684065,500,12.044201000000001
952.088342749048,1278.21506398334,801.0029949428281,868.784152028646,1145.16282471915,142.37703920091698,-64.9235753836692,200.021909780568,3426,0,-1060,15136,4872,-475,-93,-45,684066,500,12.044301
846.289963340008,1211.6654251596199,1257.88346864877,1342.2707271133802,1471.3898700450102,1071.97387882578,37.5686793580535,215.05350336793302,3426,0,-1060,15136,4872,-475,-93,-45,684067,500,12.044434
702.0297229432331,1178.6929380091601,1503.30367002194,1101.25072769087,-249.65702680867997,610.60018429457,22.5112401589868,200.076559724985,3426,0,-1060,15136,4872,-475,-93,-45,684068,500,12.044529
376.69412189372804,874.793228979455,1114.57124207006,624.698232760275,-898.81217906595,-91.48498847131849,-152.35219852649598,-4.52674320852384,3426,0,-1060,15136,4872,-475,-93,-45,684069,500,12.04465
239.249538259231,357.023811461288,-125.959782842896,-1099.04172441378,-534.154298448644,134.416253272153,-60.689485775074,69.6866474157432,3426,0,-1060,15136,4872,-475,-93,-45,684070,500,12.044763000000001
484.116777406889,621.822045483743,333.405612110277,-284.053475118591,-448.303218986373,-229.812844755303,-28.800090483971896,231.413959138328,3426,0,-1060,15136,4872,-475,-93,-45,684071,500,12.044898
371.139742747822,393.37221448635694,-57.66288532270121,-631.977196843101,-529.462273728917,-429.491346533468,16.604653407121102,180.438358438667,3426,0,-1060,15136,4872,-475,-93,-45,684072,500,12.045021
238.690313195839,223.409583984758,-173.54653750744203,-911.9315524896369,-1263.47210853983,-920.8083471144199,-30.9766646262142,131.085999486269,3426,0,-1060,15136,4872,-475,-93,-45,684073,500,12.045132
77.0793900463032,-74.62011027929842,-585.1063839345011,-1508.3404123883802,-2252.60269896456,-1649.42158042599,-61.0688934593345,78.3698163059307,3426,0,-1060,15136,4872,-475,-93,-45,684074,500,12.04526
49.6518670534715,-113.53234052949101,-556.242917783675,-1311.18894077186,-2096.4220672968104,-1412.88738846674,-63.9517904129461,47.1775408836547,3426,0,-1060,15136,4872,-475,-93,-45,684075,500,12.045394
122.933280468307,145.175949991099,-8.982513252762152,-386.04450654477097,-357.084229873406,342.173989863484,-63.8149384719436,-18.408181499107698,3426,0,-938,15125,4814,-311,55,86,684076,500,12.045524
201.25722319169998,183.017405900289,97.1770273103612,82.36369777508659,671.880898165051,826.1659711970129,-120.32082987076099,44.0253651106032,3426,0,-938,15125,4814,-311,55,86,684077,500,12.045738
465.419475078059,552.290381574538,636.274177803192,718.824869986216,1080.79115376461,1283.21286146622,37.5390849123942,258.714452355634,3426,0,-938,15125,4814,-311,55,86,684078,500,12.104815
354.603547190112,518.4380154892569,834.7154652712629,1297.6225116181301,1737.9579094985997,1125.3354180318402,8.58939197461586,135.81989380368,3426,0,-938,15125,4814,-311,55,86,684079,500,12.104878000000001
313.726050784317,381.638439514441,569.547631579684,877.382534534758,1210.25430359476,646.417830747494,74.4067773140268,208.235217051115,3426,0,-938,15125,4814,-311,55,86,684080,500,12.104927
278.315448768582,288.269564101822,449.774541019462,742.5924703266361,710.955505748425,275.811389203474,28.099744241160803,192.288388370187,3426,0,-938,15125,4814,-311,55,86,684081,500,12.104979
234.39241283023102,166.24296516249902,184.405061044963,343.132504735375,102.589403499325,-190.54617870965697,12.182271280908001,179.514395918231,3426,0,-938,15125,4814,-311,55,86,684082,500,12.105041
290.38331239900396,242.495454381686,183.697505695978,121.559316269209,-192.10969993434298,-323.13620716886396,68.0128271303838,232.48013462545399,3426,0,-938,15125,4814,-311,55,86,684083,500,12.105097
332.744913515053,347.598590704263,293.29741641588,83.610148911248,-389.70896541985,-278.164705857926,106.249825745355,228.131787907681,3426,0,-938,15125,4814,-311,55,86,684084,500,12.105154
156.93402097802,157.226681796834,104.387018467183,-211.248682444304,-740.843522732466,-274.48748535121604,36.680560852750205,106.566731585306,3426,0,-938,15125,4814,-311,55,86,684085,500,12.105213000000001
-139.912071336352,-217.598364830599,-226.261605282314,-480.554662464012,94.99396411131599,417.820754989632,-40.965090785000896,-73.10919914476109,3426,0,-882,15067,4779,426,115,135,684086,500,12.105273
-230.321471543488,-427.740974051529,-191.048624458257,-88.61870645868478,720.646929623559,718.874861631659,16.5162377615925,-75.63915487763009,3426,0,-882,15067,4779,426,115,135,684087,500,12.105337
-216.243205980747,-617.35514504218,-300.36109252763,-181.55315445605098,-44.8362430048583,244.000395326293,15.641817357274698,9.31512308865786,3426,0,-882,15067,4779,426,115,135,684088,500,12.10574
-181.46359185944303,-493.53464199707395,-404.321716790437,-402.506946997019,-454.93473136689903,22.489329334639503,-42.859581304714105,-30.016397217637895,3426,0,-882,15067,4779,426,115,135,684089,500,12.105816
188.77506213123002,284.631518968148,87.29203844116999,-102.94390453415701,-194.08412636024897,-172.406516789866,-51.9351755775861,14.619112697662802,3426,0,-882,15067,4779,426,115,135,684090,500,12.105887000000001
364.577295189461,473.714829449076,263.70808952325,181.95107663871002,231.459757407603,-413.555341548752,-2.2643674165592502,112.358947728993,3426,0,-882,15067,4779,426,115,135,684091,500,12.105960000000001
85.0215342378651,10.5082491483772,-74.8623381467769,7.15165855525993,105.119989271509,-405.227440125251,-6.87604987894883,15.0932922495995,3426,0,-882,15067,4779,426,115,135,684092,500,12.106042
-117.50929412216601,-249.158791018534,-191.57138533087,-16.4032336116943,-36.5398807299498,-26.320276031736302,-64.0984255104559,-114.74569237267099,3426,0,-882,15067,4779,426,115,135,684093,500,12.106122000000001
-213.162983468443,-323.717810504837,-205.453354146914,-10.8446907710168,-164.50433816839399,-146.035706657509,-122.591195984685,-180.35275317356002,3426,0,-882,15067,4779,426,115,135,684094,500,12.107605000000001
-263.888967206702,-359.57069134467696,-232.07260869466703,65.2008492590394,-62.3026997578854,-267.231661517057,-191.279918572458,-224.264777041622,3426,0,-882,15067,4779,426,115,135,684095,500,12.107701
-134.10306430689502,-206.1499479739,-149.03825127927098,226.750114252995,-200.867746646109,-141.448327476275,-119.978885022516,-199.051143641467,3426,0,-887,15043,4772,893,146,39,684096,500,12.107807000000001
245.48516474719503,332.924040614511,550.081474200822,1022.2707033364,-23.670712740451602,-88.7799365673563,-121.113271447888,-40.9825631022686,3426,0,-887,15043,4772,893,146,39,684097,500,12.107904000000001
150.281541355856,84.1685306185391,-45.458551533171,-59.432394250121405,582.6003295351401,516.750901357154,39.751903192955105,43.563960341154605,3426,0,-887,15043,4772,893,146,39,684098,500,12.108288
218.241551907995,331.414288475411,535.085830530152,1082.46668450866,394.23045524640503,-133.445624032116,-117.404654751997,-14.0589991949964,3426,0,-887,15043,4772,893,146,39,684099,500,12.108394
117.401206492592,27.0115362913348,-218.29179962060903,-312.064597188786,323.47201306192403,379.215803163068,4.66114888840821,38.350269014365004,3426,0,-887,15043,4772,893,146,39,684100,500,12.108507000000001
-36.8405135546345,-148.378916050424,-315.323989745812,-0.794044401030988,324.140485387819,-4.936339630687139,-107.33419614675199,-91.7520142487483,3426,0,-887,15043,4772,893,146,39,684101,500,12.108618
-73.8800762345491,-211.26746490050598,-252.132683406468,214.171043315378,-2.15463261466357,-355.47242187603797,-61.908586105681,-100.976449815556,3426,0,-887,15043,4772,893,146,39,684102,500,12.108733
-182.003929008555,-300.19353369565204,-215.558010700741,441.349476486968,290.753997290274,-329.956016477547,-77.6663374034106,-163.74402984965099,3426,0,-887,15043,4772,893,146,39,684103,500,12.108851000000001
-135.733482635987,-217.07297209301004,-170.487902870169,385.43717936697095,396.150366941642,-196.426966258558,-96.2055005077273,-144.234160431428,3426,0,-887,15043,4772,893,146,39,684104,500,12.108963000000001
33.1890102176403,89.60476979729721,256.618383483728,502.126090197533,769.5202652136211,10.967019954172402,-72.7720317327185,-95.1498799020192,3426,0,-887,15043,4772,893,146,39,684105,500,12.109078
66.8387250046071,140.037703330629,493.54416563944,498.08855747187005,1232.60329238288,486.06966409960296,-129.128043400124,-67.5434942537686,3426,0,-1008,15122,4764,757,313,43,684106,500,12.109208
86.15315792209,-32.7638213258469,284.281056786771,106.52085484314001,708.033738322149,630.265206731856,-76.45688066049479,27.2955445353873,3426,0,-1008,15122,4764,757,313,43,684107,500,12.109331000000001
81.3731049286725,-124.900189297507,189.913365771179,28.8938951279561,106.512452212919,342.343195193331,15.309384529246,82.1930742397672,3426,0,-1008,15122,4764,757,313,43,684108,500,12.167862000000001
170.061702260631,176.6487060379,267.641031409614,-25.9023880995228,-305.645750792144,-24.477668547944603,103.94159547309401,96.6519774323096,3426,0,-1008,15122,4764,757,313,43,684109,500,12.167924000000001
309.310906606901,351.20044259948196,-201.179159923806,-987.3037219006509,-889.5318409524921,-483.11016629729403,139.788098517864,134.776439248002,3426,0,-1008,15122,4764,757,313,43,684110,500,12.167976000000001
123.84151558604201,88.29775896132921,-215.95734202361197,-681.558959282032,-792.331588305562,-894.2590446022219,38.044485994556496,51.1824758329894,3426,0,-1008,15122,4764,757,313,43,684111,500,12.168037
-24.5355048551864,36.3676663963124,35.781498526223004,9.94299654397764,-231.240812029835,-670.203343035362,-7.7740172690828295,-72.11318622413091,3426,0,-1008,15122,4764,757,313,43,684112,500,12.168093
-6.09677404526155,-134.164912560955,-470.87190772639605,-954.8221246040781,-1054.48011062996,-252.15755327395198,127.84178077918502,-16.979486736352598,3426,0,-1008,15122,4764,757,313,43,684113,500,12.16815
-150.862453530077,-329.39379651041196,-598.524986885604,-929.6556292327301,-936.2573078087011,-389.857792475435,3.3849843280622705,-136.43922002113,3426,0,-1008,15122,4764,757,313,43,684114,500,12.16821
-115.93382189254,-216.097919506836,-329.049456272973,-496.33721573150297,-570.043803474633,-209.811843473755,-19.1493759836885,-114.283582884236,3426,0,-1008,15122,4764,757,313,43,684115,500,12.168271
24.894027297647,-40.6086218077689,-114.60098629735901,-255.234835149953,-387.255475812097,154.81825503963,50.0230778328259,-20.850405797013103,3426,0,-1131,15170,4725,502,371,-14,684116,500,12.168336
45.706459037610294,64.1222960940795,82.26779049553441,67.3351481406717,33.7520155404345,520.851320526213,70.6299342320417,-19.0140993210953,3426,0,-1131,15170,4725,502,371,-14,684117,500,12.168404
199.419197074894,230.148852583021,259.781190166716,248.73730564065,334.226146390749,747.143501160434,157.55768559919701,104.03706773545099,3426,0,-1131,15170,4725,502,371,-14,684118,500,12.168474000000002
152.45531785005,111.86912594188499,116.075086148223,95.95312896126421,242.38010126983897,639.662961769267,148.987820587237,80.4605549703119,3426,0,-1131,15170,4725,502,371,-14,684119,500,12.168561
-67.8336646690441,-108.287546049571,36.7650206009857,40.4727727806021,158.627728450578,364.562657923379,158.406562522985,-10.399442043039,3426,0,-1131,15170,4725,502,371,-14,684120,500,12.168632
-61.7761427758669,-48.4354797288543,193.96179116459098,169.526719472109,90.8212115599599,79.96475448599091,169.688962842687,4.21897203254048,3426,0,-1131,15170,4725,502,371,-14,684121,500,12.168707000000001
-62.7480665245967,-360.99004386412,-211.28499515296397,-160.160876356007,-345.815728453628,-323.313069638913,99.33661840052808,37.535847701947205,3426,0,-1131,15170,4725,502,371,-14,684122,500,12.168787
-382.697947056557,-1014.4572779571199,-597.550393468235,-271.075911373307,-449.05018351497705,-478.074308193289,53.7088352876017,-67.6955373930978,3426,0,-1131,15170,4725,502,371,-14,684123,500,12.168866000000001
-567.462826613162,-1464.9500577503302,-898.475285427063,-559.469554344367,-464.521921396867,-452.009829445742,37.4673789626104,-120.92909528221901,3426,0,-1131,15170,4725,502,371,-14,684124,500,12.168948
-708.160788343783,-1422.8240129274802,-901.458132437081,-720.021554006496,-396.307539418718,-214.585148665705,66.1458557688165,-140.69951032172,3426,0,-1131,15170,4725,502,371,-14,684125,500,12.169041
-180.270202581014,7.0953415913972995,-123.283788681962,-313.098727610253,-267.317189531954,-67.5666398160392,58.6887396897655,-107.54896316921801,3426,0,-1181,15154,4632,126,549,-101,684126,500,12.169129000000002
667.977776134328,1406.23913326766,658.0963882261419,119.56093577665199,25.034721148840603,3.08760740293656,-57.9896464356571,-17.170890703913802,3426,0,-1181,15154,4632,126,549,-101,684127,500,12.169219
654.959961220855,1025.9433391343302,595.939879336976,293.407629088179,296.841123385006,328.252209434402,-104.640204956697,91.95415543147828,3426,0,-1181,15154,4632,126,549,-101,684128,500,12.169314
73.6561433851602,187.270596540882,50.581752162776006,109.310676331457,373.448577251809,402.894257543318,-217.285094964085,-128.223412683466,3426,0,-1181,15154,4632,126,549,-101,684129,500,12.170547000000001
-223.136131712061,-46.6760193294613,135.110894739977,466.118889156962,818.758335545339,508.388263489527,-187.40279911313,-253.228007404367,3426,0,-1181,15154,4632,126,549,-101,684130,500,12.170660000000002
-323.42658452808996,-258.81814027763903,-0.045029963250272004,388.160917720001,540.990208304545,96.7906147017493,-95.2803003923618,-217.662227300345,3426,0,-1181,15154,4632,126,549,-101,684131,500,12.170786000000001
-301.214893006254,-333.151419607922,-215.99409054464198,-112.17467151163099,-342.496892477357,-518.357590586471,62.2765274163685,-124.894762950018,3426,0,-1181,15154,4632,126,549,-101,684132,500,12.170897
-162.006699025223,-265.431396131287,-369.613166417112,-656.938816840557,-1047.9883491219698,-798.861070611922,67.8076816893299,-116.755550104077,3426,0,-1181,15154,4632,126,549,-101,684133,500,12.17102
204.03108746799998,81.68981569889,-114.857145237154,-381.98981327985496,-841.3132693138319,-700.194237835531,13.642326889035802,24.4486036557937,3426,0,-1181,15154,4632,126,549,-101,684134,500,12.171140000000001
406.490448870522,384.72318252024695,188.396839884575,199.58950054942403,-265.524997007393,-279.764528506552,-88.5407233404112,85.3825093940832,3426,0,-1181,15154,4632,126,549,-101,684135,500,12.171267
436.474972032302,335.15228416980204,354.694449674105,763.960860561492,355.7519018772,246.72548709932002,-31.438597457890896,144.558387184981,3426,0,-1150,15085,4517,20,808,-222,684136,500,12.171402
298.124808784807,202.712582428707,252.577445792849,922.762220096396,776.4696684881641,722.906271678978,37.8703820880037,79.765077021555,3426,0,-1150,15085,4517,20,808,-222,684137,500,12.171527000000001
-196.25801840311001,-119.874220195576,-38.079787248862,740.67681310515,944.460299314756,849.276020282181,29.793893973983398,-171.04653548577298,3426,0,-1150,15085,4517,20,808,-222,684138,500,12.171664000000002
-641.728289727704,-567.6149286935109,-476.15528413630096,-62.242718480964,509.09954056274694,496.042406511784,-45.7576522418531,-370.02577827940695,3426,0,-1150,15085,4517,20,808,-222,684139,500,12.171784
-251.832286682416,-262.44485879654496,-551.98657606577,-948.545239743544,-265.674441034585,-48.5675653506769,-74.6515999494004,-194.84457778302,3426,0,-1150,15085,4517,20,808,-222,684140,500,12.171923000000001
-39.7072095412586,-149.887196288328,-530.455855551176,-1090.35780272086,-917.475681890734,-758.292744080652,-92.2505873005139,-58.61197772389279,3426,0,-1150,15085,4517,20,808,-222,684141,500,12.172143
-25.9975725431286,-6.9293728999327895,-288.561522130622,-415.484709342971,-970.8160586043671,-1008.9581851005198,-103.663704742736,-129.783806952531,3426,0,-1150,15085,4517,20,808,-222,684142,500,12.231568000000001
-21.4018356785527,14.9939365022583,-158.988692804473,113.840000500117,-520.616625749448,-699.955860179209,-70.21164768061129,-153.35568803700198,3426,0,-1150,15085,4517,20,808,-222,684143,500,12.231633
-98.3498448580212,-247.56855272222302,-536.844565161271,-77.9534451685613,-546.060770161479,-617.384008340712,-56.0557588389493,-69.3025929896394,3426,0,-1150,15085,4517,20,808,-222,684144,500,12.231684000000001
-333.332487032807,-495.911285864422,-725.123970102984,-177.911584419926,-279.99808971653704,-386.757136346248,-142.442821322358,-176.101958812447,3426,0,-1150,15085,4517,20,808,-222,684145,500,12.231736000000001
-251.343805515819,-248.235148270265,-297.88227240555,-6.3154960975516605,397.14522987464403,-26.826864052796697,-261.532882492116,-255.72332076949502,3426,0,-1037,15074,4387,625,1334,-381,684146,500,12.23179
-83.9131973334879,31.138911520363802,50.498567455681,49.8509021876671,604.718647703616,560.1525975287079,-126.713952410559,-158.447261129157,3426,0,-1037,15074,4387,625,1334,-381,684147,500,12.231849
238.441770916834,382.547692512977,281.239831299987,-251.44096576349702,-89.66418214209259,470.98874035582395,197.225639325101,143.32572811294798,3426,0,-1037,15074,4387,625,1334,-381,684148,500,12.231908
347.081407225167,533.78511701047,386.857812672621,-383.004860401736,-468.304562588484,41.071147964219605,187.18842778221,151.150692501455,3426,0,-1037,15074,4387,625,1334,-381,684149,500,12.231969000000001
345.03866338511597,456.538821929833,194.01154047250702,-548.685648226354,-627.5489793822339,-158.892660844314,150.438065898838,122.103397849947,3426,0,-1037,15074,4387,625,1334,-381,684150,500,12.232031000000001
173.07727869635,184.47123717994,-140.527323149494,-821.588008169841,-906.0172059750771,-634.602081190096,86.31583832786421,67.5766471329844,3426,0,-1037,15074,4387,625,1334,-381,684151,500,12.232097000000001
161.26218601584,160.255532469018,-107.17187251290301,-644.858099307748,-1017.00428925926,-897.646802774398,97.52194255852372,63.41547976539,3426,0,-1037,15074,4387,625,1334,-381,684152,500,12.232167
-42.2047203987313,-3.78228327515535,-197.453293023165,-600.4906263187,-1050.0470228378301,-897.009926358878,52.9344893075759,-69.8832279079361,3426,0,-1037,15074,4387,625,1334,-381,684153,500,12.232238
-334.553769612976,-217.44628160959098,-260.76214522938204,-493.053886365,-783.51829918864,-686.6653468685109,53.620342237991295,-171.702194601414,3426,0,-1037,15074,4387,625,1334,-381,684154,500,12.232325000000001
-398.652230717038,-191.92193597182597,-109.614727304666,-217.008840453695,-489.481066143402,-390.477155719185,63.2392432504566,-182.805762505741,3426,0,-1037,15074,4387,625,1334,-381,684155,500,12.232399000000001
-138.96706077389499,234.76469245552997,522.6101803097409,587.251776368328,242.126832665206,272.694970460667,212.853769528447,-50.66403495229321,3426,0,-940,15075,4376,1225,1396,-802,684156,500,12.232481
310.267436325841,727.663454766967,1011.76997689356,1227.4152149916902,897.014293897257,896.768686123425,471.891168434289,145.416771902237,3426,0,-940,15075,4376,1225,1396,-802,684157,500,12.232561
786.67342646094,1027.55413544597,1082.3768319441,1242.41981128321,1043.8340649767802,1071.7905484252801,655.1317620636551,455.31156566983594,3426,0,-940,15075,4376,1225,1396,-802,684158,500,12.232644
962.9503805669079,1084.16666760365,1007.96628683084,1047.50782547638,917.4866906517129,801.3738794047391,420.67243238625804,574.4942842138701,3426,0,-940,15075,4376,1225,1396,-802,684159,500,12.235461
856.751789814123,1051.5862796873598,1081.5198726365302,1170.0063414558801,1016.2740384835901,518.402746656095,42.050036721047896,418.88590451260103,3426,0,-940,15075,4376,1225,1396,-802,684160,500,12.235562000000002
37.342201633844496,426.104965492385,782.4513956371229,1051.43636259099,990.563338285865,170.376476777717,-51.609387559816206,87.3237173736561,3426,0,-940,15075,4376,1225,1396,-802,684161,500,12.235655000000001
-1501.24597704716,-795.77990221919,60.769782611285294,530.844825685839,599.436216392613,-13.3172350786626,-5.966451751184651,-432.88818323961505,3426,0,-940,15075,4376,1225,1396,-802,684162,500,12.237059
-2096.37759911912,-1456.80815806787,-627.058323753066,-164.128304002312,-22.347963593463604,-340.797192610218,-129.830130381742,-792.556112309801,3426,0,-940,15075,4376,1225,1396,-802,684163,500,12.237171
-1472.6183622265198,-1239.9964609103,-841.199093586649,-525.4612583384439,-515.129488624283,-763.5488955646291,-305.804226677981,-756.165443665115,3426,0,-940,15075,4376,1225,1396,-802,684164,500,12.237274000000001
-98.3623369037523,-447.483288370888,-882.702095396002,-1179.39147270992,-1362.46693414735,-1029.94195930863,-240.075938629045,-230.28263381589198,3426,0,-940,15075,4376,1225,1396,-802,684165,500,12.237399
730.063057736028,219.876105407369,-459.57267247315,-855.2128825002291,-1057.35505067871,-528.777057665051,-9.203406664077189,227.429808537359,3426,0,-1022,14932,4413,296,2136,-513,684166,500,12.237506000000002
586.168180691137,312.457626337186,-7.92181242955849,-87.86320053419331,-803.7116905408329,-367.74862071184896,-81.3249858446652,240.18163993942997,3426,0,-1022,14932,4413,296,2136,-513,684167,500,12.240504000000001
81.3298492679605,-135.733482610434,-327.095413764706,-392.407372951624,-276.942787584063,25.807470675557898,-73.0430304726469,71.9029830785003,3426,0,-1022,14932,4413,296,2136,-513,684168,500,12.240634
-157.83956112340098,-292.123405805556,-162.290945449611,81.9890418442956,342.633410339535,160.048842393328,-281.49832203087897,-149.926851876662,3426,0,-1022,14932,4413,296,2136,-513,684169,500,12.240751000000001
101.863320051401,135.78642131621,210.14230542106097,620.0203001583291,883.903021084698,103.795759230852,-451.564550616837,-174.206361966324,3426,0,-1022,14932,4413,296,2136,-513,684170,500,12.240866
348.381617985695,648.778169635567,566.985221649986,999.2652129378979,1183.8545525278,-142.558203021239,-569.8019922205131,-177.307167483377,3429,0,-1022,14932,4413,296,2136,-513,684171,500,12.240995000000002
184.37179630011101,423.941052278038,426.451547472039,829.1620174443809,820.166367387108,-539.860820580623,-603.0658635013971,-210.174682990764,3429,0,-1022,14932,4413,296,2136,-513,684172,500,12.241122
-61.0718201254494,112.457864404423,28.288323838147303,-66.2717651849671,-483.07128540444,-780.1376320615531,-425.216470770421,-177.03625473717702,3429,0,-1022,14932,4413,296,2136,-513,684173,500,12.241251
-196.123385448736,-58.9967475219164,-246.648009628872,-696.1218798141051,-1184.69882391818,-483.741550458071,-110.446869023785,-90.6424088390777,3429,0,-1022,14932,4413,296,2136,-513,684174,500,12.281192
-153.587664700288,-79.24600776587609,-300.510874591651,-638.356771078019,-1109.3522085271302,-257.608833969745,67.2342765573412,-97.7422821093351,3429,0,-1022,14932,4413,296,2136,-513,684175,500,12.281255000000002
9.65994902222883,-147.932857521344,-306.983244800824,10.984803535015098,-594.673384808004,-59.1335738325142,190.025380530104,-9.35001596820075,3429,0,-1235,14886,4520,335,1857,-311,684176,500,12.281304
-21.9182021059096,-327.055737540592,-411.743627350195,631.348411293176,-62.5485394282732,172.640347941371,167.182425107749,-45.2857488280861,3429,0,-1235,14886,4520,335,1857,-311,684177,500,12.281372000000001
-450.599662710127,-331.017078745062,-161.405951624853,1250.89648183083,621.93308254538,570.450012034271,81.01840776525209,-163.251887096791,3429,0,-1235,14886,4520,335,1857,-311,684178,500,12.281427
-1056.75946179384,-555.527639067732,-79.14999916788659,1260.4484241284401,910.2815691725699,544.902335168619,-119.347355314123,-500.350154242828,3429,0,-1235,14886,4520,335,1857,-311,684179,500,12.281485
-760.936533203116,-379.71424463507697,13.013069609412902,722.277433796407,856.126017042872,320.90305983304296,-177.088078164321,-530.126552302158,3429,0,-1235,14886,4520,335,1857,-311,684180,500,12.281542
-424.05935413515505,-468.430498043424,-383.90471165441,-347.811791038053,50.347229049861205,-168.623036786448,22.285742625361298,-312.06748650386004,3429,0,-1235,14886,4520,335,1857,-311,684181,500,12.281602000000001
587.356307128823,167.426790441037,-223.327860411373,-385.934347006667,-1105.10726273363,-1028.65924165869,87.99443480384069,181.529697035672,3429,0,-1235,14886,4520,335,1857,-311,684182,500,12.281664000000001
684.790667948255,306.413866339601,-65.741249534185,-231.77266232681,-1202.65569208245,-1216.0800865191302,-25.0014678825391,229.719947994687,3429,0,-1235,14886,4520,335,1857,-311,684183,500,12.281732000000002
263.23960833184503,-148.619507800089,-516.305204037577,-1283.94751969093,-914.358961207821,-715.427810799272,68.12641693098699,111.34376652771601,3429,0,-1235,14886,4520,335,1857,-311,684184,500,12.2818
-69.5828352532117,-738.0828995349581,-753.529366678325,-1324.21761898813,-1009.23763632047,-543.9670664696599,84.56394704210109,22.2663737247931,3429,0,-1235,14886,4520,335,1857,-311,684185,500,12.281874
-336.634051176719,-1076.6883807272,-814.8497005238901,-1101.5838631164802,-696.449660621292,-149.045747686527,37.1931286694016,-98.4931369468104,3429,0,-1064,15081,4120,557,2820,-832,684186,500,12.281957
-614.249619372422,-679.6259137681919,-112.175166104804,-438.476260898344,-278.228312755091,268.774605885264,123.574411091278,-172.028431048268,3429,0,-1064,15081,4120,557,2820,-832,684187,500,12.282034000000001
-259.332879871945,255.09023807977798,476.391786813154,179.599159409176,9.569244232989151,476.65501386346295,200.92216088285198,-30.983230183133898,3429,0,-1064,15081,4120,557,2820,-832,684188,500,12.282110000000001
-513.035842385783,-222.064697367023,-78.2618686107453,-122.30996861503799,-182.23200763663002,216.847488829691,11.965866341663101,-255.409299886902,3429,0,-1064,15081,4120,557,2820,-832,684189,500,12.282193000000001
-2215.41379368867,-1539.92412355007,25.911523518734604,587.2146175965901,-173.87542010765202,46.7318137360853,81.75529562932209,-704.5906539171699,3429,0,-1064,15081,4120,557,2820,-832,684190,500,12.282277
-4161.7760888114,-2878.03455003875,-148.472211988643,647.8831433809249,270.638249956915,168.912593682704,227.18846284237202,-1057.70415596245,3429,0,-1064,15081,4120,557,2820,-832,684191,500,12.282380000000002
-5867.03258910801,-3703.442583611,-585.0089594153691,36.9898949549242,652.946755489189,714.884382293385,472.158693593519,-1523.6286036975198,3429,0,-1064,15081,4120,557,2820,-832,684192,500,12.282472
-4526.79404176294,-2526.93022922799,-209.14938238542499,584.482115055464,542.526019761252,378.51965226035105,262.890444423479,-1676.6072933689002,3429,0,-1064,15081,4120,557,2820,-832,684193,500,12.282569
-892.6544649879221,-194.37770215678,65.6313421679661,358.93603628766095,182.045105894766,54.2905063880025,-32.2182319830754,-875.600899861893,3429,0,-1064,15081,4120,557,2820,-832,684194,500,12.282664
2473.53846608743,1730.4366101543399,337.971824528999,38.8053204171883,-361.75937413587195,-452.71615306678,-210.35330300428902,379.516529787332,3429,0,-1064,15081,4120,557,2820,-832,684195,500,12.283927
4014.81710175081,2637.4000103170997,544.2920917239969,-45.7862983366358,-390.95437762991094,-475.381680720951,-227.256197154813,1204.55318480078,3429,0,-724,15261,3927,383,3858,-876,684196,500,12.284041
2912.2070867521697,2123.80171590601,594.97758690815,58.4982913536078,-63.014546849706704,-49.565943106252206,-47.1773319131462,963.881120748934,3429,0,-724,15261,3927,383,3858,-876,684197,500,12.284168000000001
2003.12009829952,1556.90904987196,448.24502511811403,-171.426705297112,-66.1100251071912,122.49765672883998,168.416949421866,780.8327579376049,3429,0,-724,15261,3927,383,3858,-876,684198,500,12.34125
1450.1370021828602,1037.7781574497901,242.708725397475,-258.355488012865,-223.19492727974998,3.2275832847808497,48.4073161460692,604.014622723218,3429,0,-724,15261,3927,383,3858,-876,684199,500,12.341313000000001
870.215197298123,628.438980004168,434.24687810475,433.914753296209,-181.547660988726,-214.92156719125302,-186.373871621501,303.175087391632,3429,0,-724,15261,3927,383,3858,-876,684200,500,12.341363000000001
443.581917486765,227.16814267763402,141.409154021763,20.4271290828765,-280.531581444608,-409.46940559754097,-163.81679364334602,159.117416509194,3429,0,-724,15261,3927,383,3858,-876,684201,500,12.341414
205.10827238133098,37.598619317752295,-176.595853611128,-407.772660969262,-466.71182113012804,-637.34656646318,-143.522470243508,6.91500737331808,3429,0,-724,15261,3927,383,3858,-876,684202,500,12.341471
533.058738159394,456.580162442173,-224.298739244696,-498.69791192319803,-680.361152985221,-885.209197375632,-195.025680285355,17.5999012959655,3429,0,-724,15261,3927,383,3858,-876,684203,500,12.341527000000001
521.006660555082,437.038247010671,-206.803611776792,-376.800181901257,-572.323221844475,-849.705383941415,-264.759255350684,-45.3865510261385,3429,0,-724,15261,3927,383,3858,-876,684204,500,12.341587
512.065886003606,477.347998578916,-4.682039140840059,-78.5293228416995,-75.06970839216959,-355.50081933475997,-307.77421947912103,-41.997404504334604,3429,0,-724,15261,3927,383,3858,-876,684205,500,12.341660000000001
439.61691113325696,456.517118753982,189.946926928824,297.507057653012,456.720732717804,70.9338826963212,-352.227438283444,-87.34250111342409,3429,0,-829,15041,4193,840,3643,-1260,684206,500,12.341725
597.610809995909,569.090462782071,192.332409165218,146.125346841203,199.77402786549598,176.02924299938599,-175.500040506013,111.34992899186899,3429,0,-829,15041,4193,840,3643,-1260,684207,500,12.341791
535.977828129166,411.924188676872,-17.9811474384042,-149.45237148203898,-110.61534689270799,223.161746948317,6.97727184905671,236.007022195612,3429,0,-829,15041,4193,840,3643,-1260,684208,500,12.34186
-55.567032453866,53.9801779802656,-45.7995631051017,-63.7095174574933,-137.881589243043,101.753792161995,42.0886089013657,-27.4691422802862,3429,0,-829,15041,4193,840,3643,-1260,684209,500,12.341929
-1125.66453493849,-397.87688991334295,106.599286124576,385.669978810736,358.902363104949,457.862434576033,139.365846112953,-576.834152156487,3429,0,-829,15041,4193,840,3643,-1260,684210,500,12.342003
-1638.77547022857,-1058.7248327077803,-379.90054205758497,313.66825293560396,487.74483821398496,484.55105838185403,86.3608927025343,-914.6044240476331,3429,0,-829,15041,4193,840,3643,-1260,684211,500,12.342089000000001
-1729.0347826885998,-1646.6851781206199,-860.310141282855,78.5852301398409,304.910376721818,275.369521277084,13.1457959196414,-918.19703349215,3429,0,-829,15041,4193,840,3643,-1260,684212,500,12.342169
-178.41775835459703,-708.794260093709,-394.60273754107806,69.03396658969,-30.6772617675597,-175.672181365429,-3.5057276195730096,-121.743001557654,3429,0,-829,15041,4193,840,3643,-1260,684213,500,12.34225
657.220035744598,-290.392101392383,-420.63745611673204,-277.280719524191,-472.37877401174006,-532.631043291534,-46.7803218549816,375.58966056816297,3429,0,-829,15041,4193,840,3643,-1260,684214,500,12.342333
-181.13452458111,-791.450060210191,-376.768315755646,-19.037057368754198,-302.360632259806,-133.83918200986201,-28.894152200606197,20.025154200149696,3429,0,-829,15041,4193,840,3643,-1260,684215,500,12.342419000000001
-389.908821409248,-565.7537922284099,-658.387257645838,-491.439826634713,-71.8477695744368,335.50260423729196,-10.236462056229401,-217.812834551558,3429,0,-1579,14404,4740,951,2534,-1568,684216,500,12.342509000000002
-227.38081481654098,534.624180548824,266.96318273386004,46.7534558985499,6.72736558518955,159.99131225398702,-162.73572436108998,-305.597749539418,3429,0,-1579,14404,4740,951,2534,-1568,684217,500,12.342608
-967.207638209366,535.075167882838,972.060816496029,950.8788954210761,487.78199374338095,385.157755922584,-79.7938424526947,-489.661568103591,3429,0,-1579,14404,4740,951,2534,-1568,684218,500,12.342705
-976.297889412002,29.6826751503395,180.676998230396,41.020718888379605,31.669895386963603,107.642871407385,32.921540857933,-400.114885289571,3429,0,-1579,14404,4740,951,2534,-1568,684219,500,12.342801000000001
103.909601085004,302.741130146314,159.384658223484,45.8384508946619,-146.461116733117,-254.854097656498,16.0347925475799,117.627644170541,3429,0,-1579,14404,4740,951,2534,-1568,684220,500,12.342899000000001
1017.5866457379301,600.202697656117,42.9523174588103,-16.9805254235107,-327.330645389797,-626.726717491983,-113.92878193821501,445.05701901298,3429,0,-1579,14404,4740,951,2534,-1568,684221,500,12.342998000000001
1549.14656724012,1161.24381928553,556.019926945679,477.483553339378,-542.6972775760221,-1015.7932876196601,-219.408759974758,575.593274476822,3429,0,-1579,14404,4740,951,2534,-1568,684222,500,12.343133
1043.49279377676,891.417534130043,649.260171922739,785.8860420332351,-389.654527084262,-998.4879141552369,-284.80680979281897,294.059621026739,3429,0,-1579,14404,4740,951,2534,-1568,684223,500,12.343245000000001
278.782341499435,-199.88359144167,-429.322539850138,-740.074224154319,-309.063646697323,-502.373767987941,-164.54019873554398,164.098369767657,3429,0,-1579,14404,4740,951,2534,-1568,684224,500,12.343357000000001
45.32731922535461,-377.21476838737703,-231.367735010921,-148.157388669468,-98.292537119356,-267.828093328513,-195.824689082336,117.240808933158,3429,0,-1579,14404,4740,951,2534,-1568,684225,500,12.343466000000001
345.446377419925,185.043073585024,71.4487199970754,325.073922060197,161.525162425649,-19.307189912244198,-205.842149762379,120.651111532003,3429,0,-2394,14072,5377,362,576,-329,684226,500,12.343574
589.13549600594,-51.74350637337189,-497.059648985858,-254.031982596818,98.10566505711179,163.504969769216,-142.189213907404,244.257393327774,3429,0,-2394,14072,5377,362,576,-329,684227,500,12.343702
169.91082507357402,-943.431143959984,-819.9499772565911,-245.54832063530898,100.067798587435,287.38425064605,-131.00039298046602,182.467457131715,3429,0,-2394,14072,5377,362,576,-329,684228,500,12.403779
-374.26606999748003,-1202.8551050875099,-716.4337706853399,-236.16722158147599,64.2391448780545,184.12486868415698,-230.251993736194,-79.2947641278151,3429,0,-2394,14072,5377,362,576,-329,684229,500,12.403839000000001
-395.878376982088,-543.751911588013,-203.764935992425,345.503850195964,389.585292368662,212.32851089199502,-90.7497638625791,-70.4672844852321,3429,0,-2394,14072,5377,362,576,-329,684230,500,12.403891000000002
202.89241616136903,217.44768587302,-250.013157388545,116.950566785992,123.549238757521,-177.20181646454103,-141.797846267931,54.5210383930244,3429,0,-2394,14072,5377,362,576,-329,684231,500,12.403953000000001
887.590054787841,961.1830547759309,-52.2061921452405,-332.346084253222,-492.94312569403,-659.2479406567289,-187.23415476648398,301.170928650885,3429,0,-2394,14072,5377,362,576,-329,684232,500,12.404009
1016.1482872936999,1382.56299948087,812.9176348247569,105.43399115430701,-318.645434027771,-583.719308554078,-213.21453774900903,323.123462411226,3429,0,-2394,14072,5377,362,576,-329,684233,500,12.404072000000001
672.025505280646,1192.44135421631,1034.1896744822197,268.43776743009204,-206.13661719425,-421.661291853641,-258.737043054134,111.258804377401,3429,0,-2394,14072,5377,362,576,-329,684234,500,12.405298
414.654644826835,614.104845364462,553.06055373163,231.639940140449,-21.4874790003232,-85.7173933301237,-267.90605449496104,80.90984057006429,3429,0,-2394,14072,5377,362,576,-329,684235,500,12.405405
-8.45534848509124,-121.00172684690901,12.330737303942401,34.3056527567096,245.325069794577,455.71512435464007,-251.11265122384103,-28.5630072813947,3429,0,-2390,14492,5459,2134,-390,1026,684236,500,12.405471
-39.7139837510476,-74.7828104570508,-51.605033293249996,-47.278628564789,414.390189045429,708.144505545672,-217.625422686338,-63.130432092584705,3429,0,-2390,14492,5459,2134,-390,1026,684237,500,12.405537
517.7170888619149,809.583725939272,464.61372033180703,221.95644555726898,316.991285039461,484.370581954834,-120.948077080888,125.335458377609,3429,0,-2390,14492,5459,2134,-390,1026,684238,500,12.405633
749.174193035782,1010.1084550484101,649.4127634136239,359.627381352911,-101.177549175103,66.6103419269202,-77.1480827851919,244.86190190515498,3429,0,-2390,14492,5459,2134,-390,1026,684239,500,12.405708
810.762134970311,1092.8148696243302,1171.73981832259,1398.88036580698,-270.652556263027,-411.52284896723,-7.060878955468071,371.829830252798,3429,0,-2390,14492,5459,2134,-390,1026,684240,500,12.40578
434.30080683206296,716.3285530314321,608.289715336403,547.913738194096,86.69746465515351,-120.471908760781,69.10758909641301,280.560928836465,3429,0,-2390,14492,5459,2134,-390,1026,684241,500,12.405857000000001
36.686220262869,198.434925788082,-51.49759865587111,-484.240694560751,-248.090865700273,-254.39925797371004,19.110136209114,96.0148740420118,3429,0,-2390,14492,5459,2134,-390,1026,684242,500,12.405948
263.13946797457197,389.579498238163,357.283696508151,362.76874725436204,-469.37659413908796,-606.262093098834,-27.282468116143697,159.224962306558,3429,0,-2390,14492,5459,2134,-390,1026,684243,500,12.406048
438.06091600217,415.34741695656,266.060538278543,174.63423705851898,-305.288213011285,-594.964735028101,-22.413599117368,221.63944736227901,3429,0,-2390,14492,5459,2134,-390,1026,684244,500,12.406145
588.918371513602,450.71471838490095,154.103702717111,-138.357257261523,-189.943037025834,-330.37981358886503,-35.4920854084776,238.547233354184,3429,0,-2390,14492,5459,2134,-390,1026,684245,500,12.406233
491.419763866987,478.66645283671096,390.35637031775,359.48723841368303,-54.16840147358021,-159.516932422528,-2.6935285754152596,235.35959364695,3429,0,-1745,15095,5067,2681,-278,813,684246,500,12.406321
465.67540835024596,495.31914290110603,486.506454971037,576.826662619598,97.8002623271896,25.1184415693861,-8.06680733314715,245.121228682459,3429,0,-1745,15095,5067,2681,-278,813,684247,500,12.406433000000002
375.64076639723504,339.826338476618,201.82566889817798,125.619352903363,478.41646799162805,518.4897213369841,27.3709284090437,189.16409113619,3429,0,-1745,15095,5067,2681,-278,813,684248,500,12.40653
281.746992851782,297.56155231012997,321.171759350924,358.77042178629205,279.875486360514,380.61311576201103,-108.559309978271,65.3298220079159,3429,0,-1745,15095,5067,2681,-278,813,684249,500,12.406624
259.570680736128,176.31318517110802,289.952934630564,333.603071858553,-4.6405491016921605,174.881117429177,-25.1573811350972,136.819935071864,3429,0,-1745,15095,5067,2681,-278,813,684250,500,12.406728000000001
58.786788798082895,-190.87079423631099,-224.841848349315,-252.729728360719,-100.76660802497601,91.9547032337869,-1.42700451536803,78.2249080812326,3429,0,-1745,15095,5067,2681,-278,813,684251,500,12.406851000000001
-99.7422041402315,-471.97476119839104,-629.8495300877839,-422.3071249153,-476.91850537524397,-545.443918184319,-56.498868784692604,-6.472612908342849,3429,0,-1745,15095,5067,2681,-278,813,684252,500,12.406968
-46.6071366997785,-318.263949265936,-508.058039866039,-325.41379038812,-397.193562355824,-702.8319355835561,-97.96208705857859,-5.64375837822445,3429,0,-1745,15095,5067,2681,-278,813,684253,500,12.40708
148.965682038019,91.9138676577713,16.6872073014965,-47.8621071670495,-215.09901480239898,-498.490792415338,-136.916184126516,11.0749074481428,3429,0,-1745,15095,5067,2681,-278,813,684254,500,12.407202000000002
21.110329150600602,-33.694663460017196,95.6430173824774,21.513703311327802,-139.613352742803,-315.563048334268,-163.453502421617,-43.9653731124708,3429,0,-1745,15095,5067,2681,-278,813,684255,500,12.407321000000001
153.22481602278998,246.721440447145,506.51409249648,335.477647813037,98.903270966548,22.1046183297294,-107.172073555586,30.870420899358603,3429,0,-1261,15552,4574,237,106,441,684256,500,12.407462
379.083111833374,567.3509140597889,547.52952544787,600.789121514099,318.537520164828,244.255099714675,-95.3141090765712,68.9956014386844,3429,0,-1261,15552,4574,237,106,441,684257,500,12.407593
575.274907087383,616.636415501242,283.92492275883,112.485420881159,313.811098144302,480.51550892274804,-51.800604497722794,138.441855513258,3429,0,-1261,15552,4574,237,106,441,684258,500,12.407732000000001
316.83956727967603,255.858789320337,105.08822428667901,-50.7322858172702,-203.64169273150003,192.089891241456,-166.834115163074,35.0973392379237,3429,0,-1261,15552,4574,237,106,441,684259,500,12.407856
13.9192712039512,-9.99263531924225,22.886580983875298,-56.8853484180581,-413.519511729857,140.78892188600702,-69.7503510109382,1.6104875631863302,3429,0,-1261,15552,4574,237,106,441,684260,500,12.466882
-349.812263431348,-257.617567636538,0.34159003617242,247.08949826538398,19.2124138746003,144.77911203540899,-113.00069462571999,-147.72656404622802,3429,0,-1261,15552,4574,237,106,441,684261,500,12.466948
-191.246046894114,97.08891022799071,625.006951538962,1160.4001209017,534.983124001941,-74.8791194405057,-221.293756739644,-113.33735594607401,3429,0,-1261,15552,4574,237,106,441,684262,500,12.467
-473.888330149726,-643.771348225069,-647.264596205088,-821.59174745396,-185.965902656957,-424.953361143533,-118.545327309228,-143.966656002682,3429,0,-1261,15552,4574,237,106,441,684263,500,12.467072
-387.28380365952006,-750.2882072263161,-993.351253985893,-930.4325355893519,-1071.81014708028,-790.51419084362,-1.17541108065052,-68.8707090211101,3429,0,-1261,15552,4574,237,106,441,684264,500,12.467134000000001
255.746077278163,84.6385132257128,-287.668492577272,-254.805568225886,-461.893132903031,-322.694550449378,-4.5206972664455005,137.458409999963,3429,0,-1261,15552,4574,237,106,441,684265,500,12.467201000000001
867.8797157062511,890.254314967431,733.174398773932,614.1247789318151,554.817663699185,331.088731909927,31.9258204312646,411.76152016827797,3429,0,-1256,15675,4055,-1459,677,87,684266,500,12.467266
766.775229391962,503.216728595784,560.669838838861,687.120421856031,802.569268487307,682.5457950356649,71.8909330003662,475.923800789984,3429,0,-1256,15675,4055,-1459,677,87,684267,500,12.467333
433.37286057873297,-163.218778105569,82.2361429599114,838.677253352158,953.783358059678,1242.2488501353098,376.684404446045,519.3912371398179,3429,0,-1256,15675,4055,-1459,677,87,684268,500,12.467404
396.278366421728,76.027339002816,-30.490029685664897,687.203444145649,604.211061594018,1196.67843546247,487.85135093482694,423.171003969968,3429,0,-1256,15675,4055,-1459,677,87,684269,500,12.467473
397.393913732376,732.637485973421,375.934510192252,395.48853519276605,564.0605663585591,538.488693878928,118.625218041125,149.261420182418,3429,0,-1256,15675,4055,-1459,677,87,684270,500,12.468737
-194.786589045601,185.542483347235,100.527726573288,-28.742245002504202,569.107916958397,13.7092160302564,-312.575738077518,-243.46427679155,3429,0,-1256,15675,4055,-1459,677,87,684271,500,12.468816
-839.1891802036839,-677.695312555064,-400.005413457751,-615.6172990246849,-494.207340445457,-682.398029333854,-399.512187850079,-419.60817486816103,3429,0,-1256,15675,4055,-1459,677,87,684272,500,12.468889
-1014.4133879158801,-1004.43477676925,-810.797602760256,-995.396406055166,-1593.9120281953399,-1511.89135541912,-441.62248056533303,-484.22386602521897,3429,0,-1256,15675,4055,-1459,677,87,684273,500,12.46898
-754.1362512550841,-716.8943543130299,-571.486746610259,-641.977823962952,-1319.3826074719802,-1441.56387955864,-380.833714881854,-439.695306297857,3429,0,-1256,15675,4055,-1459,677,87,684274,500,12.469082
-109.518774846976,238.85592361271802,47.4503754674224,-294.934977941506,-610.981337432313,-918.909782341914,-339.670307196386,-285.399724380812,3429,0,-1256,15675,4055,-1459,677,87,684275,500,12.469173000000001
-638.6112579816539,-388.451279415167,-594.457600999158,-522.624735892954,-462.93167379888496,-481.252403698862,-427.20088512811304,-531.51202004205,3429,0,-1701,15404,3918,-1834,428,-116,684276,500,12.469271
-1234.6086975306098,-1356.71448425215,-1152.80150403117,-898.500074942713,-439.937205494178,25.489437487965898,-304.934917961713,-607.580681271735,3429,0,-1701,15404,3918,-1834,428,-116,684277,500,12.469363000000001
-1168.23619118702,-1728.51014883397,-1356.3164817546499,-716.12962104808,-600.061943990993,-35.564472730329705,-194.121286464971,-451.13269076449797,3429,0,-1701,15404,3918,-1834,428,-116,684278,500,12.469458000000001
-447.767902917345,-753.043858038611,-581.377942845691,8.564478715648871,78.570836078201,54.201131066190996,-355.976594795298,-386.05786181590497,3429,0,-1701,15404,3918,-1834,428,-116,684279,500,12.469556
214.03355611945202,-61.0222107437439,-98.31783577380699,201.497846279322,-616.6815018282799,-606.44106344186,-299.160027812002,-58.437766146380504,3429,0,-1701,15404,3918,-1834,428,-116,684280,500,12.469677
340.876629217993,569.691432432388,309.151518775034,-6.478267508442509,-853.060391992301,-796.7174620227311,-205.27888097806098,37.5254616750171,3429,0,-1701,15404,3918,-1834,428,-116,684281,500,12.469776000000001
560.528231552569,1005.6821833689501,449.17132092698,-309.244093192305,-265.619529969175,-142.883366834023,-286.467650941515,15.02678431815,3429,0,-1701,15404,3918,-1834,428,-116,684282,500,12.469885000000001
45.023864579678005,344.061742181075,191.913939244347,-383.630240826868,-474.53865188887,-346.861700881622,-275.206653391884,-188.053345885011,3429,0,-1701,15404,3918,-1834,428,-116,684283,500,12.470009000000001
-791.981012603763,-1381.56223236211,-1314.25869852584,-1178.53221566611,-1351.6089500029302,-720.1972875103239,-56.3825119480025,-175.92836545547502,3429,0,-1701,15404,3918,-1834,428,-116,684284,500,12.47014
-1333.29726620455,-2417.7852155003898,-2171.53581386746,-1325.4762462909,-782.703893990518,-699.293928431638,-70.8379329708987,-178.854091868969,3429,0,-1701,15404,3918,-1834,428,-116,684285,500,12.470258000000001
-1110.5666844842801,-1764.5231996950502,-1158.7229203486302,-249.219087261823,276.000621786166,314.128360915289,-137.778610937938,-264.217206754256,3429,0,-2189,15044,4057,-1931,-313,-74,684286,500,12.470365000000001
-114.45810952087,51.2833369332366,537.109997283434,986.5195905141301,1418.86052809944,988.934106442088,-301.265075513045,-204.41074574890098,3429,0,-2189,15044,4057,-1931,-313,-74,684287,500,12.470473
994.4277573618159,1695.35044520535,1119.61741704983,980.504967960733,1685.8149110035401,1285.60058219964,-205.317844152451,88.1872577088652,3429,0,-2189,15044,4057,-1931,-313,-74,684288,500,12.470604000000002
640.544962777582,996.435164134717,688.1416803061729,653.546939723339,1221.94720013652,1166.1071964883,-59.87966979842171,-14.408145395573198,3429,0,-2189,15044,4057,-1931,-313,-74,684289,500,12.470735000000001
-339.97262255212996,-789.893423336558,-721.781676613027,-718.749804788909,-720.832692605327,-6.30452772718854,117.53202075656701,-95.8468642000807,3429,0,-2189,15044,4057,-1931,-313,-74,684290,500,12.470869
-686.147167047224,-1536.28747265786,-1424.40992245555,-1388.19641684415,-1793.64512638352,-590.683528749738,-13.350239929801303,-59.0027693018783,3429,0,-2189,15044,4057,-1931,-313,-74,684291,500,12.470992
-269.743414336233,-645.544006506447,-323.502206728212,-150.179495143821,33.8428437281691,375.546238618554,-309.546917032683,-100.12867203354799,3429,0,-2189,15044,4057,-1931,-313,-74,684292,500,12.530808
398.851230032509,978.417300188914,818.3263029052181,688.797115660273,833.8306473670531,-198.686613586091,-320.802400653774,-14.5312959618168,3429,0,-2189,15044,4057,-1931,-313,-74,684293,500,12.530873000000001
881.200349725113,1753.27607991709,1147.88549094996,174.718486929894,-902.307411918766,-1670.04986585322,-252.405039752543,171.35984564269899,3429,0,-2189,15044,4057,-1931,-313,-74,684294,500,12.530924
421.382411615952,643.190545152989,392.08821580011903,-228.603912955325,-1169.8349006527,-1397.8299308901198,-233.545478527201,110.461303670541,3429,0,-2189,15044,4057,-1931,-313,-74,684295,500,12.530984
219.701622913009,263.433398419875,341.33621817477996,229.728568219201,147.07467249201702,-216.69550693192298,-203.98106072319197,91.06251590559259,3429,0,-2326,14807,4309,-1832,-715,283,684296,500,12.531041
544.2350586340181,972.585448485101,659.884481080691,678.353475737735,1235.8651816443,899.016557985626,-202.602731482533,79.8523745003622,3429,0,-2326,14807,4309,-1832,-715,283,684297,500,12.531097
1029.65630864183,1523.78163356974,775.6796246381709,564.851504329097,795.5475038950681,474.366250420746,-104.840276998351,291.378257234697,3429,0,-2326,14807,4309,-1832,-715,283,684298,500,12.531154
554.978879398084,601.2652878791561,-45.11694160581101,-199.15279378846802,-48.7262415946461,188.162292852241,-66.9255803681444,211.071043113829,3429,0,-2326,14807,4309,-1832,-715,283,684299,500,12.531212
240.23803938957298,141.406387166469,-472.075709964032,-519.3414025771201,-203.726223682024,609.097384191526,-57.3066260546912,111.883485155064,3429,0,-2326,14807,4309,-1832,-715,283,684300,500,12.531274000000002
287.166863599676,556.812570916722,367.37985715980204,369.90305970085296,686.650992909155,934.321104306553,-255.498515732354,-42.7133632451296,3429,0,-2326,14807,4309,-1832,-715,283,684301,500,12.531341000000001
315.61094975905104,813.972463092767,962.807661309838,1081.07890572504,1756.68168163672,1062.6600541682599,-296.180976485834,-120.846986553865,3429,0,-2326,14807,4309,-1832,-715,283,684302,500,12.531409
315.862553336774,739.9527816785271,979.35798379255,1330.18299604263,333.884129152633,-33.9470304384595,-230.012930168828,-64.8381483432604,3429,0,-2326,14807,4309,-1832,-715,283,684303,500,12.531478
52.7558590155386,85.4868419294944,38.6855396290775,-118.213273945032,-201.630880622368,-208.57444628299,-28.5189147346537,-68.15722548321361,3429,0,-2326,14807,4309,-1832,-715,283,684304,500,12.533143
-208.061020903231,-318.33550321823,-342.68726925354,-313.290961474268,56.5964910933399,-292.56954387284304,-8.41433278948534,-148.944390438381,3429,0,-2326,14807,4309,-1832,-715,283,684305,500,12.533603000000001
114.735124592349,94.7882136766566,-105.148916231585,-100.47177995898501,208.247331099381,-85.3303337350953,8.458277922938581,91.2694459452759,3429,0,-2165,14792,4571,-1071,-1187,798,684306,500,12.533687
495.10801633514296,689.5734956713859,473.263437259942,447.56742954745994,718.726111474039,376.704543436063,-162.698192233511,121.78072714945299,3429,0,-2165,14792,4571,-1071,-1187,798,684307,500,12.533769000000001
582.525032897538,628.981575647485,462.09879167750506,699.5650950402201,759.7161589550669,397.693960648845,-9.73711282550357,264.199540716014,3429,0,-2165,14792,4571,-1071,-1187,798,684308,500,12.533853
353.809976946883,182.554338131566,-138.236104462296,132.52271710330402,45.9110987353197,-27.7864160459721,107.526823873108,271.66748657159,3429,0,-2165,14792,4571,-1071,-1187,798,684309,500,12.533941
278.986628503102,291.23653651412997,-67.24618545256091,-70.6888195445354,-166.083735265012,-264.109316385002,113.016333543521,223.381724372506,3429,0,-2165,14792,4571,-1071,-1187,798,684310,500,12.534041
116.64329693123001,162.03849036025298,96.2720123226754,-92.4855825018894,-165.744234116108,-255.990350274194,0.17705008503980899,85.25927122985009,3429,0,-2165,14792,4571,-1071,-1187,798,684311,500,12.534485
-17.8398923637287,-143.433094274718,65.9514145745197,10.211762015853301,-46.15291661676021,284.68527637299803,-49.6408537517418,3.51436762639787,3429,0,-2165,14792,4571,-1071,-1187,798,684312,500,12.534898
-241.073890650732,-247.328866424155,-107.09259648970301,36.1015221872949,-8.54667255425011,131.919192504254,-167.403186102281,-196.45941132935698,3429,0,-2165,14792,4571,-1071,-1187,798,684313,500,12.535007
-298.536334208358,-514.879385580774,-671.494989447645,-63.5454719817499,561.2382924159459,349.735519040783,-90.9015772925923,-158.41037701047,3429,0,-2165,14792,4571,-1071,-1187,798,684314,500,12.535112000000002
-150.557751130313,-462.063517845003,-801.511979890754,-379.57603411859594,171.876928250596,171.294545953977,-83.920234248857,-42.324321576277704,3429,0,-2165,14792,4571,-1071,-1187,798,684315,500,12.535218
338.421274353052,518.269947191351,309.327714377781,20.8709119799023,-41.7045422547089,-0.949822538823355,-184.34737884014598,50.451313807978295,3429,0,-1720,14840,4578,-572,-858,392,684316,500,12.535345000000001
