CH1,CH2,CH3,CH4,CH5,CH6,CH7,CH8,Vbat,Trigger,AccX,AccY,AccZ,GyX,GyY,GyZ,N,fs,Timestamp
442.72858619710297,325.489394675242,86.1088390084915,-213.249774028955,-1503.7330920481197,-2029.44658439379,432.90918498823896,440.134922914091,3427,1,-1933,15439,4568,-4187,-4228,-248,684488,500,12.894824000000002
239.836241124518,-68.09466130728829,-480.288192769978,-719.606295721838,-1242.7428222772699,-1267.69407437131,129.421649879136,268.661454451154,3427,0,-1933,15439,4568,-4187,-4228,-248,684489,500,12.894860000000001
52.3868726056244,-11.5627037391532,-387.695755552966,-858.881394822791,-980.9880132136459,-566.0855228326401,29.461938771419202,28.762790763284997,3427,0,-1933,15439,4568,-4187,-4228,-248,684490,500,12.894895
494.33018614782503,926.7104424402349,916.1260744741879,372.005071468069,443.200919322873,11.5091039331164,-18.569588534708604,125.757561128587,3427,0,-1933,15439,4568,-4187,-4228,-248,684491,500,12.89493
391.13096565415606,643.841019001673,588.792360055842,110.79887707068701,136.36885611704201,-548.992887575994,-58.0506077731261,144.02393426897498,3427,0,-1933,15439,4568,-4187,-4228,-248,684492,500,12.894967000000001
133.186968332215,342.616342273424,512.966056036996,159.91783347522102,-152.724444021122,-1004.09300858888,15.2570120640448,90.50681769603399,3427,0,-1933,15439,4568,-4187,-4228,-248,684493,500,12.895005000000001
-32.103929467382805,23.277447031694496,370.49178606178594,242.204500581662,-102.315363461152,-555.123889852141,148.267103652994,36.6607164924499,3427,0,-1933,15439,4568,-4187,-4228,-248,684494,500,12.895045000000001
174.34417202440102,87.5365656191716,189.038577340543,390.035084788833,438.378893398127,464.633201648598,245.822998191637,156.397450349992,3427,0,-1933,15439,4568,-4187,-4228,-248,684495,500,12.895085000000002
25.4274166745017,58.571389362332404,35.681311503867605,149.436982016661,581.761568702786,238.39838368044,-20.5664043102297,-26.472325623151804,3427,0,-1063,14738,4659,-5443,-3793,-2138,684496,500,12.895134
-172.31175009292198,-208.53347977623298,239.998912600451,833.0403646840421,1207.28532079593,427.384099749674,-99.7853139755316,-81.845386040397,3427,0,-1063,14738,4659,-5443,-3793,-2138,684497,500,12.895179
-512.661781431991,-1244.43546803959,-646.39656040282,583.890306263551,964.365999659582,-434.409296658414,-35.905319026787794,-16.2804466034286,3427,0,-1063,14738,4659,-5443,-3793,-2138,684498,500,12.895224
-774.2104974969991,-1553.84264332138,-731.669230258209,1222.2628718871601,2436.6672182817997,372.145069005375,-33.4401607031468,-200.963948105229,3427,0,-1063,14738,4659,-5443,-3793,-2138,684499,500,12.895272
-568.38315274936,-1146.80895348499,-1068.25988022157,-198.47671987896302,457.093606302748,710.495690033538,111.10124303866199,-169.677820071112,3427,0,-1063,14738,4659,-5443,-3793,-2138,684500,500,12.895320000000002
-306.472814711888,-35.278394266963,-290.590741073596,-909.819166949717,-985.004288965487,-227.40206408814998,-41.3093647018541,-255.04404566856098,3427,0,-1063,14738,4659,-5443,-3793,-2138,684501,500,12.895369
361.60232345107903,1032.5605613529901,871.895675208769,368.29353491924104,180.64792992791598,-331.750420541386,-84.4904766001855,-33.2603728520917,3427,0,-1063,14738,4659,-5443,-3793,-2138,684502,500,12.895424
678.47800338667,1092.2839958641,870.0665130155389,310.735880898079,105.45369172104999,-336.40179613512004,105.40759378863702,287.117129613645,3427,0,-1063,14738,4659,-5443,-3793,-2138,684503,500,12.895480000000001
196.37295374716598,190.26611004827998,-312.344521218562,-1288.40941969599,-1996.0480812825601,-735.4991614766769,170.699322576693,191.077843747335,3427,0,-1063,14738,4659,-5443,-3793,-2138,684504,500,12.942813000000001
-59.1076823548065,-204.615605161991,-1124.21639133641,-2693.62872790519,-4952.68130900853,-1436.6514141251098,359.387287769699,151.88017501402598,3427,0,-1063,14738,4659,-5443,-3793,-2138,684505,500,12.942882
-18.2404496002709,-201.03455245296902,-1028.55275211541,-1799.5527695474698,-3009.7977699334697,-1393.61919082789,222.73731040966203,97.26610091060871,3427,0,-394,13761,4542,-3076,-1747,-1804,684506,500,12.942938000000002
0.254737754905364,8.21514749538619,-101.284009516239,85.1249739899649,968.9774963921229,748.71621632349,27.166532638657397,26.436535139801002,3427,0,-394,13761,4542,-3076,-1747,-1804,684507,500,12.942997
169.568384933169,298.326138964854,135.680427840678,-307.55271004219,-903.4622814079339,-420.06231364212005,-172.91928120743302,53.8775748374173,3427,0,-394,13761,4542,-3076,-1747,-1804,684508,500,12.943057000000001
293.036184125114,707.033363614231,790.035047980142,814.1859605619679,1476.9002512456198,955.84916566225,-36.600924558704705,7.43659723422024,3427,0,-394,13761,4542,-3076,-1747,-1804,684509,500,12.943118
186.388998415699,587.898442718782,858.8206191804491,1323.64935258444,2419.3408133758103,1529.4814425527,-74.89530442090471,-54.324665784835794,3427,0,-394,13761,4542,-3076,-1747,-1804,684510,500,12.943192000000002
175.47218828945202,383.772267259075,742.8704534218409,1486.83749814125,2197.1717432978603,786.1326992224789,-265.745459528523,-40.7815627361415,3427,0,-394,13761,4542,-3076,-1747,-1804,684511,500,12.943252000000001
206.422165029711,303.417173807626,535.920704927645,1035.78173921362,418.502970220317,-385.212439358875,-33.8472093800083,100.787286397652,3427,0,-394,13761,4542,-3076,-1747,-1804,684512,500,12.943314
247.908754636359,137.59771079733,-260.738499000319,-896.326383959153,-2157.81119745673,-1139.44766891911,474.39916839607804,346.915146339685,3427,0,-394,13761,4542,-3076,-1747,-1804,684513,500,12.943382000000001
-49.0061939632869,-230.868159534992,-604.2280922131611,-997.640778163332,-520.183805451059,527.602782062371,400.900946932612,90.1014159228653,3427,0,-394,13761,4542,-3076,-1747,-1804,684514,500,12.94345
-370.03629383194504,-779.5604431271789,-723.786614736775,-102.910810929199,855.533243883838,699.0952209701061,248.805127985659,-104.87777388782699,3427,0,-394,13761,4542,-3076,-1747,-1804,684515,500,12.943519
79.1354727189464,-369.361234131735,-18.0080501988996,1002.25538263854,1524.3770972162602,132.052672432736,132.386267460824,155.730320316972,3427,0,-459,12964,4555,2557,-1078,-1290,684516,500,12.943591000000001
-161.002484117751,-333.943646393949,193.015650863876,406.199951200193,730.957934537961,156.408883758471,321.50239308126,153.710097688832,3427,0,-459,12964,4555,2557,-1078,-1290,684517,500,12.943665000000001
-284.848247865681,-0.8313622450223191,491.827463934314,129.60835156502398,-59.5380491272954,886.01466121315,457.56319622817705,33.4532656663796,3427,0,-459,12964,4555,2557,-1078,-1290,684518,500,12.943749
178.180286352086,365.883465187741,-62.764596897061004,-676.182311115466,-1524.8513079677698,110.88633873593099,384.213972422818,162.139691093937,3427,0,-459,12964,4555,2557,-1078,-1290,684519,500,12.94383
440.64534009410994,527.267719264142,-28.093226907542,-528.81865383414,-612.652500923257,238.81123819260398,245.184646770475,237.53793538082402,3427,0,-459,12964,4555,2557,-1078,-1290,684520,500,12.943913
177.104945826781,115.21183863538299,-11.741157806711302,-233.218813430663,35.7674074002425,334.323130219185,198.31278742576302,144.042179306503,3427,0,-459,12964,4555,2557,-1078,-1290,684521,500,12.944023000000001
252.734892240667,305.538633793243,429.730577762588,236.579361477692,-579.012992914708,-27.500371939327998,228.53693901927898,192.820302539272,3427,0,-459,12964,4555,2557,-1078,-1290,684522,500,12.945789000000001
-94.9316989154031,-96.80861562758221,-188.69237013778198,-200.826377995574,300.55102673228197,226.349555298686,143.10012235934798,-37.2672298431862,3427,0,-459,12964,4555,2557,-1078,-1290,684523,500,12.945901000000001
49.676457091089105,221.369696250185,-66.9941496870015,-394.262885228934,283.69147853410703,63.6221166713513,185.92413542623402,-2.13098951196298,3427,0,-459,12964,4555,2557,-1078,-1290,684524,500,12.945999
-114.590777525009,-223.656189249014,-414.867544670706,-945.9982230027961,-991.051450131432,-551.217755894759,190.44371694966702,-3.2083068647189097,3427,0,-459,12964,4555,2557,-1078,-1290,684525,500,12.946501000000001
-34.328083844506196,-416.666817567078,-408.58179115504,2.7941849125200005,610.165061069274,776.4660157727781,307.19271686393796,102.058806906105,3427,0,-531,13035,4600,6019,-472,-1207,684526,500,13.005676000000001
256.601607636258,184.764968426316,303.201354801422,953.6505774469699,955.1415509351649,1142.48673072981,261.484826686501,144.395090090693,3427,0,-531,13035,4600,6019,-472,-1207,684527,500,13.005736
434.57606232142996,577.9421823328589,940.4967277242099,1086.6671955461802,659.7749439379841,719.826006690506,266.024784105422,259.73424497863704,3427,0,-531,13035,4600,6019,-472,-1207,684528,500,13.005797000000001
-105.18636728898899,-177.615173449391,329.601413304103,297.771038674924,1007.0497970377,414.70848538191103,117.46068366063999,26.805423289421,3427,0,-531,13035,4600,6019,-472,-1207,684529,500,13.005848
-221.82452031257003,-509.338094390696,303.688510271953,1087.84017227718,855.062786950264,118.353679964668,148.627801558352,62.11458099132871,3427,0,-531,13035,4600,6019,-472,-1207,684530,500,13.005904000000001
-207.81039757168,-533.805920015671,-230.71080630028197,105.094482970977,335.266602454067,338.468138523051,336.411791162682,93.9991284018615,3427,0,-531,13035,4600,6019,-472,-1207,684531,500,13.00596
274.091369667905,18.425588551443102,53.463123881258106,186.000590632757,67.4037197372818,182.17196641646999,346.938223916688,278.5187464474,3427,0,-531,13035,4600,6019,-472,-1207,684532,500,13.006017
334.5785339883,362.029709004448,832.946874566143,1061.87982970491,65.232235274656,-112.29777876473999,197.326442414371,213.280365388608,3427,0,-531,13035,4600,6019,-472,-1207,684533,500,13.006077000000001
-184.063115598663,-216.89280403277402,-70.80484417267141,-535.723698012123,94.88518969665171,308.436504494166,288.074352284544,68.35485381528271,3427,0,-531,13035,4600,6019,-472,-1207,684534,500,13.006139000000001
-105.935547819885,-54.1988243295345,-145.414703668794,-526.342806508561,-59.6789410118654,271.750073915173,167.997251481283,20.6361078348709,3427,0,-531,13035,4600,6019,-472,-1207,684535,500,13.006206
10.970383775391399,256.52127592544997,64.1305462465389,-86.7662735492049,167.300518191303,391.529281704046,50.40680796146629,-65.2436492819106,3427,0,-353,14409,4271,5869,1145,-37,684536,500,13.006273
222.809373263095,294.045852374751,-120.47951835021401,-56.1366809401661,369.57651595294,655.8780503828309,99.2447181829484,39.75714399758729,3427,0,-353,14409,4271,5869,1145,-37,684537,500,13.006354
28.53322381209,-218.451400026795,-361.410508606117,-132.218234890286,399.381413486582,752.9318104808341,210.07487118197602,74.8766527038533,3427,0,-353,14409,4271,5869,1145,-37,684538,500,13.006425
-147.418017995631,-177.97965240362097,-23.9395201831358,61.960733200132395,423.829712827137,583.4137847094099,170.45081307511998,13.1612684712745,3427,0,-353,14409,4271,5869,1145,-37,684539,500,13.006499000000002
76.3322838034655,502.960023842752,484.21747393091204,338.18083121965196,516.524571767834,518.345648820861,133.302378745459,-6.0465974368853495,3427,0,-353,14409,4271,5869,1145,-37,684540,500,13.006576
647.084126689413,901.1025393292081,756.45430508547,540.382287675631,-109.44320445394301,-68.640806203417,172.137335117906,232.36592473182802,3427,0,-353,14409,4271,5869,1145,-37,684541,500,13.006652
458.417200529104,401.853609860875,580.063480032608,1024.2489234728,-238.66654138933498,-506.18866615631896,199.54936501634103,295.873970532906,3427,0,-353,14409,4271,5869,1145,-37,684542,500,13.006733
-19.079330466862302,-346.569345545606,-996.3233645295261,-1486.16212820337,-724.015457191213,-339.023639730411,314.060922195436,175.728015872883,3427,0,-353,14409,4271,5869,1145,-37,684543,500,13.006824
204.01642959445599,255.924947882188,-193.831810788484,-351.903828646813,-189.65381110645802,-125.239272723207,159.812408719154,131.60649972164498,3427,0,-353,14409,4271,5869,1145,-37,684544,500,13.006908000000001
402.45578673909796,1047.64712087833,940.494693275657,755.285155798221,114.44934776014999,-53.2441732740845,2.5151225812733196,65.17463776178191,3427,0,-353,14409,4271,5869,1145,-37,684545,500,13.006997
350.958455240092,935.0696532177969,582.918311429908,-290.917613105237,-8.58548555691959,36.7351321374881,65.8062202605652,70.12579420313699,3427,0,-482,16315,3843,3701,1835,1111,684546,500,13.007091
153.015995319118,309.10077605641004,246.678098733886,-119.623680823424,155.1216376464,344.213532020571,245.566429063852,160.474550344399,3427,0,-482,16315,3843,3701,1835,1111,684547,500,13.007184
-170.653866922221,-108.326489350875,143.18876167445,-77.6636679370422,678.501974957529,1104.9619798676,202.46051575784801,29.0770772681572,3427,0,-482,16315,3843,3701,1835,1111,684548,500,13.007288
-316.36950255770404,-377.437281975755,-282.975123305805,-273.729958267097,-257.537249317917,305.922788494034,220.503481719818,34.468826122582,3427,0,-482,16315,3843,3701,1835,1111,684549,500,13.007395
42.582562345895,-81.706010631402,-574.61903026083,-870.798057606618,-1747.31890882977,-673.94942874735,409.23683960409795,277.29725228436297,3427,0,-482,16315,3843,3701,1835,1111,684550,500,13.007503000000002
244.013499002234,342.50368095655,-183.86968688282602,-892.946786378539,-1038.14854785398,-56.533417065802496,221.94867213827098,194.11485982302102,3427,0,-482,16315,3843,3701,1835,1111,684551,500,13.007611
473.725562924345,748.4837774330521,803.2237596535119,704.0287954881791,1243.25687675917,743.973914999573,12.146962125611,117.92609673622101,3427,0,-482,16315,3843,3701,1835,1111,684552,500,13.007719000000002
320.939358896459,524.29829130345,616.269643217442,648.308868045744,1320.81312839151,-278.137749726651,-140.379211995925,-1.04069714969955,3427,0,-482,16315,3843,3701,1835,1111,684553,500,13.007841
-1.86957511023502,186.623510460835,349.145058536204,397.491309937497,366.83416142434,-866.126128377742,-170.751858781965,-96.6593955403659,3427,0,-482,16315,3843,3701,1835,1111,684554,500,13.007964000000001
-227.235103980551,-345.591024240479,-341.968318809406,-23.1215292921697,411.543980944552,32.9503788571456,-44.720352485659504,-112.574276145897,3427,0,-482,16315,3843,3701,1835,1111,684555,500,13.008085000000001
-232.146957488818,-715.127632867894,-1078.10007621872,-901.566688081803,-254.84926338394902,481.562227656657,87.68901909474519,-38.8488328614039,3427,0,-1111,17693,3670,38,1505,900,684556,500,13.00941
154.547669029562,-43.5441077053547,-219.971537391306,-6.10070745690609,756.583042322891,980.2027892417971,93.2294141848106,84.6385243431432,3427,0,-1111,17693,3670,38,1505,900,684557,500,13.009539
330.701777638344,464.630088548991,529.068590513314,522.421921878529,1682.8115977584698,1762.75187319418,125.52811377937901,109.19333711476101,3427,0,-1111,17693,3670,38,1505,900,684558,500,13.009678000000001
159.81317153835,439.754537907545,608.886550399126,180.758440620353,1208.1502545307198,1539.7256930751,-17.4807970208931,-30.5309062872548,3427,0,-1111,17693,3670,38,1505,900,684559,500,13.009819
-24.847617760708104,117.048492588685,237.516805242863,302.465282815625,1617.8407123248,1591.71069927909,-65.2910014764639,-92.9843827481382,3427,0,-1111,17693,3670,38,1505,900,684560,500,13.068655000000001
115.766120235348,185.92880091047797,238.461465723696,254.697283760994,684.769064348366,684.018920451752,137.92246345453898,73.9073411095887,3427,0,-1111,17693,3670,38,1505,900,684561,500,13.068738000000002
228.78195348201598,253.941649667802,177.772704851581,-47.876982933376,-380.770623297343,-269.00813538808103,262.074359706137,170.143557502655,3427,0,-1111,17693,3670,38,1505,900,684562,500,13.068797
324.477548769326,290.289068614016,121.80982538918,-355.61459331275495,-1284.92090370032,-1344.27915007301,254.48482452909198,276.102526892559,3427,0,-1111,17693,3670,38,1505,900,684563,500,13.068851
8.54817093364545,-231.32046400406398,-203.757966259145,-374.290096618497,-1328.07683480377,-1254.3176919580999,165.49288732721502,161.109539439087,3427,0,-1111,17693,3670,38,1505,900,684564,500,13.068906
-605.53514040343,-1242.2865463431199,-836.294715948636,-471.223655514419,-256.652160049591,-334.658558021067,75.61828073393549,-125.365608942579,3427,0,-1111,17693,3670,38,1505,900,684565,500,13.068962
-926.720948294504,-1864.9430302653898,-1381.3999456242902,-664.315373520803,-101.912548403576,119.38711300143,99.15637545305071,-229.384057142655,3427,0,-1797,17915,3781,-3148,127,361,684566,500,13.06902
-891.0795578440302,-1871.5780008034803,-1682.13844092656,-718.8264933486639,-220.394034057041,459.439712849795,145.252804907796,-161.170181932626,3427,0,-1797,17915,3781,-3148,127,361,684567,500,13.069079
40.5108518990746,33.911152099492,-588.8043281855059,-903.803195888002,-1422.55823438635,86.6866733795614,268.280101485259,143.703534124885,3427,0,-1797,17915,3781,-3148,127,361,684568,500,13.069141
818.3604162342959,1783.43530411052,1477.6895747285998,1107.75730121409,1951.64121395099,1160.51095934719,-96.18140108120859,85.0282496085856,3427,0,-1797,17915,3781,-3148,127,361,684569,500,13.069207
449.61848175598396,1077.35709862877,1072.7098969279302,1026.1683156772901,1294.73011738653,404.31178758706704,-59.5830332532059,19.132385738194,3427,0,-1797,17915,3781,-3148,127,361,684570,500,13.069277000000001
232.538142099889,558.928337965743,668.770465077949,426.82238281250505,-287.156139297847,-454.75329261104304,12.3355041678878,42.5020861694356,3427,0,-1797,17915,3781,-3148,127,361,684571,500,13.069345
199.021363743843,268.557117574732,606.729109900421,756.1470332290629,986.8750702737309,135.871935170842,123.10530270595301,125.20305920473801,3427,0,-1797,17915,3781,-3148,127,361,684572,500,13.069418
123.184239072638,153.7195725817,271.1647401097,341.982238060562,923.27513229812,48.3374692379148,86.40629464440279,44.88572145428039,3427,0,-1797,17915,3781,-3148,127,361,684573,500,13.069491000000001
105.926606624853,351.352653554757,405.84720629069506,170.48140465121799,268.160414915852,-255.736213165219,-5.48760414705612,-76.16773211327379,3427,0,-1797,17915,3781,-3148,127,361,684574,500,13.069567000000001
75.96162714957609,126.14926675625601,58.8524062810466,66.7028098146257,319.819769630907,-267.816222555644,-68.4088368857629,-108.256830530125,3427,0,-1797,17915,3781,-3148,127,361,684575,500,13.069649
194.43606063129798,139.271099647856,44.124780000420294,30.798567777557803,367.840225417924,256.88811893214,143.73233666672598,65.7645210658666,3427,0,-2002,17171,4013,-4385,-792,91,684576,500,13.069752000000001
132.549047723121,37.9427833893569,-88.6764686119277,-330.607296318805,-314.16319002426496,25.745271444611696,221.050434292702,95.50442642788401,3427,0,-2002,17171,4013,-4385,-792,91,684577,500,13.06985
164.841819145542,146.565067554009,202.526329264278,183.03472396370498,298.270144764683,166.167755073344,126.46996476029699,125.86294452263999,3427,0,-2002,17171,4013,-4385,-792,91,684578,500,13.069942000000001
-5.0056376901047805,-88.02357452479191,76.6862397864461,389.15016905378405,478.714156153204,758.972197950643,166.22763940040002,38.5753519439604,3427,0,-2002,17171,4013,-4385,-792,91,684579,500,13.07004
-159.813171172835,-398.185217421735,-373.53416887077003,-60.214892171963605,167.96286396097298,551.334495741175,200.513574347016,21.9385177415097,3427,0,-2002,17171,4013,-4385,-792,91,684580,500,13.070141000000001
-61.2634167817014,-262.240900069941,-490.181377150584,-713.6464637286839,-783.855745307868,-338.423079559405,211.507321599289,82.02704424853441,3427,0,-2002,17171,4013,-4385,-792,91,684581,500,13.070243000000001
132.45145809405898,114.490148794488,-87.6108731857967,-321.418982673029,-298.725293380587,-306.784648898814,138.880795570789,127.449529763893,3427,0,-2002,17171,4013,-4385,-792,91,684582,500,13.070345000000001
-17.1129146846361,57.213761808117894,-1.1067476249299901,-108.976305159595,12.4155325927422,-25.1052152859047,61.1932906800066,20.2566063883714,3427,0,-2002,17171,4013,-4385,-792,91,684583,500,13.070458
-93.25915023722341,-41.0869560104329,-63.751022681128205,-247.987243417883,-422.65807152056396,-133.509662980738,110.67931053781601,19.7386004178552,3427,0,-2002,17171,4013,-4385,-792,91,684584,500,13.070573000000001
-67.0887056849315,-154.05844021181102,-222.003895028844,-456.8022405283701,-681.3576108436099,-165.030419825576,166.499239442463,69.9073490886949,3427,0,-2002,17171,4013,-4385,-792,91,684585,500,13.070704000000001
65.0884108475002,42.4482343556592,31.151643578545197,64.43060528396751,481.27611614947097,285.8158690196,83.48483392433259,57.8345872805221,3427,0,-1596,15954,4256,-4189,-416,116,684586,500,13.070817000000002
20.713023937947604,43.712524393573396,67.48914786498061,72.3412561996374,453.77034651371696,412.028299466358,41.2536737056216,25.041647186968497,3427,0,-1596,15954,4256,-4189,-416,116,684587,500,13.070927000000001
104.090500265709,123.465267357649,193.801139465766,213.31228366462202,441.496456089168,594.28573075583,100.91039088316,132.775462574093,3427,0,-1596,15954,4256,-4189,-416,116,684588,500,13.071051
63.1981509363395,41.23033097363079,93.9415066739311,108.05293621381901,-105.276979198825,152.158677262894,75.3497327571968,108.97794528224001,3427,0,-1596,15954,4256,-4189,-416,116,684589,500,13.072328
-37.8045443108422,-129.416452599107,-28.524692687206002,136.272065149125,299.834438555816,336.638284321758,89.8551667348365,23.8610624969006,3427,0,-1596,15954,4256,-4189,-416,116,684590,500,13.131677000000002
-473.430694889626,-1047.2118464754901,-778.5018314083569,-271.12741807592096,350.076442346734,281.295574588119,88.27599373884729,-102.924921671045,3427,0,-1596,15954,4256,-4189,-416,116,684591,500,13.131737000000001
-1077.50384765631,-2208.8976818046103,-1480.3267398516198,-545.235460929573,-262.157723484328,-129.12822884979,140.375377046352,-218.186123916414,3427,0,-1596,15954,4256,-4189,-416,116,684592,500,13.131811
-1958.2026040571802,-3717.71357429493,-2423.7533681331,-775.155502456444,-1932.0321428106101,-1059.1197012406801,267.343362429878,-371.749255771632,3427,0,-1596,15954,4256,-4189,-416,116,684593,500,13.131865000000001
-2420.39055001637,-3959.3964581781797,-2396.3384017727803,-859.074467727944,-2495.80672812398,-1640.57606284675,227.75342306162898,-583.998656750657,3427,0,-1596,15954,4256,-4189,-416,116,684594,500,13.131923
-1601.73534089525,-1744.3463502076902,-451.24145666288695,108.47805281146401,1288.24066876509,1128.2555478444,45.5494765124167,-646.500163650373,3427,0,-1596,15954,4256,-4189,-416,116,684595,500,13.131981000000001
-411.64194459951204,595.15421395388,1407.97089162061,1359.08633589235,2116.2876434361397,1017.37061191251,-352.011361210141,-526.340230157482,3427,0,-1112,14900,4379,-2089,442,369,684596,500,13.132042
702.9873998782131,2258.48732727161,1941.10911159648,1710.5834795768899,2318.78213953637,839.261981116259,-286.476683833753,-165.18609143747,3427,0,-1112,14900,4379,-2089,442,369,684597,500,13.132105000000001
1510.5147161172101,2607.10276714852,1533.3919388102402,728.985303471825,686.188810431515,449.68916391639505,-5.11246412695618,275.93293185648497,3427,0,-1112,14900,4379,-2089,442,369,684598,500,13.13217
1409.55187559276,1872.0540175455399,1143.62481070415,545.669861414208,689.7875513600299,442.587208027777,-42.2792416199809,380.61500151455397,3427,0,-1112,14900,4379,-2089,442,369,684599,500,13.132243
1087.19537551832,1283.24797072983,663.2805170564679,165.872967037722,453.821436884871,348.10690403950895,155.543893754482,420.37512569804704,3427,0,-1112,14900,4379,-2089,442,369,684600,500,13.132314000000001
775.777978382801,1025.7057738610301,485.04504855582496,-156.519044817891,27.9974435358599,-184.443058825156,162.078753040056,320.497761207167,3427,0,-1112,14900,4379,-2089,442,369,684601,500,13.132389000000002
469.21281836624297,714.695940706879,375.59732495818804,-151.911400250829,-476.97846639522993,-380.411630060175,99.95715422154171,167.19902870594498,3427,0,-1112,14900,4379,-2089,442,369,684602,500,13.132464
107.826551910315,70.66191641532349,-268.127614605823,-493.179040649498,-707.3181172888139,-566.961831861932,27.676188493380298,20.776835849159397,3427,0,-1112,14900,4379,-2089,442,369,684603,500,13.132541000000002
86.83522619228461,-180.752485635574,-659.3417258139231,-601.603997854661,-716.129396059492,-748.178945600695,0.0216053364565596,18.288040586048698,3427,0,-1112,14900,4379,-2089,442,369,684604,500,13.132622000000001
264.851885675511,285.483397596865,94.1824261153815,146.964185486082,109.944328686048,-324.893453944358,-12.3814388773753,60.5481900675222,3427,0,-1112,14900,4379,-2089,442,369,684605,500,13.132706
449.578830147395,757.810763980611,940.648872048012,718.235493355402,955.510264286102,84.175152148935,-51.460259844141504,63.5221218784573,3427,0,-875,14058,4456,981,880,349,684606,500,13.132812000000001
361.682311037672,551.443827323965,558.174951035995,351.20442348724504,541.340360653907,447.388481223199,73.9190836651833,57.512707147281596,3427,0,-875,14058,4456,981,880,349,684607,500,13.132902000000001
407.037494015938,510.60672059294296,449.760641005356,269.97319215370203,324.114332542202,646.055362911662,165.929930936603,178.77560438460202,3427,0,-875,14058,4456,981,880,349,684608,500,13.132994
301.754632388736,332.12881564546797,234.364200541051,-5.0285000790318,-167.666942479555,276.77434838627204,155.42313260154302,146.473997318186,3427,0,-875,14058,4456,981,880,349,684609,500,13.133087000000002
163.987312849873,142.94797992333798,60.404503531753996,-184.177417999774,-386.976358160551,54.199710207525605,139.078966122295,73.8264231763314,3427,0,-875,14058,4456,981,880,349,684610,500,13.133192000000001
33.8964516671258,-14.063618325046301,-67.66034868103449,-222.95119710313202,60.29062026366589,174.263646421838,49.3962217371445,-19.7792552552419,3427,0,-875,14058,4456,981,880,349,684611,500,13.133296000000001
32.628336365713,-39.9269151170738,-62.9487860853551,-55.52654940504001,341.976690569165,-87.7834165222594,33.3749602814787,3.05934205290396,3427,0,-875,14058,4456,981,880,349,684612,500,13.133401000000001
-41.1687014042691,-40.6220121899387,155.361859024153,557.989079025778,32.827646952529896,-375.373279773747,-40.084824032557705,-86.6807146540377,3427,0,-875,14058,4456,981,880,349,684613,500,13.133503000000001
-42.4928274266422,-35.344357661088,90.70373303431549,198.893703282141,-531.8298643028251,-416.882952343905,-8.282323460502079,-84.86580115288959,3427,0,-875,14058,4456,981,880,349,684614,500,13.133608
-163.048304463795,-332.230091901263,-604.17939953017,-1107.73409091099,-696.885386265407,-227.30876747652698,47.967014963389396,-111.88886464212601,3427,0,-875,14058,4456,981,880,349,684615,500,13.133732
-97.25510112391198,-137.46591179946,-226.058984679636,-292.253121076181,-18.1492849460628,-38.105541590077294,-35.612439474731204,-147.513795755105,3427,0,-1004,13666,4523,2852,1065,294,684616,500,13.133878000000001
25.357587899983603,43.9402712391457,30.086336271488104,70.8386362523015,269.519273057667,318.667056239035,35.8839021588792,-72.3822247049538,3427,0,-1004,13666,4523,2852,1065,294,684617,500,13.133998
222.956579802005,330.403959916206,556.312005765853,803.041989171237,574.453574560262,548.741046000214,91.57980799902,45.538792405976,3427,0,-1004,13666,4523,2852,1065,294,684618,500,13.134116
59.336836166767206,47.8357447760645,76.23567884101071,106.006776497583,354.834322536743,404.259275389137,75.026868143701,0.0048023514682427,3427,0,-1004,13666,4523,2852,1065,294,684619,500,13.134234000000001
23.963796882395396,32.1370794760296,136.78696863772302,214.656374982442,-198.936272204679,-96.1827525668195,16.9403513299185,-39.9918359888252,3427,0,-1004,13666,4523,2852,1065,294,684620,500,13.134362000000001
39.712610038172,134.889002827113,466.875726139871,812.851416995079,-327.416488307324,-582.4216043336199,-125.88363585591999,-135.137226004037,3427,0,-1004,13666,4523,2852,1065,294,684621,500,13.134497000000001
-65.9738493250916,-106.489980232785,-66.7664551661583,-210.299543574278,-153.174298119236,-672.023253068735,-64.1948824097635,-130.70827368251003,3427,0,-1004,13666,4523,2852,1065,294,684622,500,13.19203
-142.513030567643,-238.519635064877,-263.818222073372,-425.668299850193,-464.062696462031,-918.485265847645,-18.1801630412228,-148.19191957265102,3427,0,-1004,13666,4523,2852,1065,294,684623,500,13.192065000000001
-105.797483276023,-183.060614839429,-196.049873128417,-313.37583563805697,-414.295654505811,-358.88647646346396,40.179347432102105,-103.83914958778799,3427,0,-1004,13666,4523,2852,1065,294,684624,500,13.192094
-106.30489503502,-152.136886072578,-143.03255999996298,-113.036200633622,91.989447457745,53.619995447574205,-13.4910850662855,-133.573400125024,3427,0,-1004,13666,4523,2852,1065,294,684625,500,13.192138000000002
-26.308351154963002,-102.71217951050501,-191.04008061182702,-420.01704732529504,-356.085409939813,-178.999548925844,-6.86598454037448,-62.562719989568,3427,0,-1230,13892,4500,3248,946,54,684626,500,13.192918
-69.5405503791408,-110.54418838908899,-248.37805965216802,-519.4299055705491,-1164.24944785825,-1020.8548668003599,-13.2420493797981,-57.0298625291325,3427,0,-1230,13892,4500,3248,946,54,684627,500,13.192955000000001
-401.410312590597,-671.790733339614,-924.094199843006,-1062.77926847318,-1872.8384338540197,-1199.26588709559,124.55523899872802,-61.5013238367392,3427,0,-1230,13892,4500,3248,946,54,684628,500,13.192989
-1281.64292659744,-2136.27376604255,-1945.10953666852,-1373.72127937281,-1335.29109173969,-381.65561293368205,226.839478909445,-319.319834779948,3427,0,-1230,13892,4500,3248,946,54,684629,500,13.193031000000001
-1697.68476505717,-2447.52652971284,-1446.7789426831303,-580.649275878211,325.485358805105,866.9828082269521,2.8824784074677203,-636.512241363409,3427,0,-1230,13892,4500,3248,946,54,684630,500,13.19307
-880.194141134009,-1016.7341596301401,-304.70458749996004,24.6611790040624,726.3079435633549,601.4250483805661,59.9710589360329,-414.089388483088,3427,0,-1230,13892,4500,3248,946,54,684631,500,13.19311
206.365038960765,433.992972460692,214.94697391148702,257.706770703022,815.0290312539729,358.04111173033,61.688329110387706,-43.378433344536504,3427,0,-1230,13892,4500,3248,946,54,684632,500,13.193150000000001
345.225859234168,569.747756763943,270.97749617742403,-379.70848248532303,-708.25250858182,-214.22879282245398,-169.154895228741,-88.706109681516,3427,0,-1230,13892,4500,3248,946,54,684633,500,13.193196
274.64609362575,665.028801937005,833.108290686971,969.399933647248,1683.00162668151,809.656414600206,-384.190051867801,-258.676293039229,3427,0,-1230,13892,4500,3248,946,54,684634,500,13.193244
398.717465430615,696.487888202653,535.552302005701,594.366780345212,1648.40589145522,1192.67610969505,-268.58854238013697,-131.371125128237,3427,0,-1230,13892,4500,3248,946,54,684635,500,13.193291
235.024884748826,467.16526920860605,356.96569822263,389.949286081537,1422.3844798675302,1327.39809252508,-143.488898044161,-152.725017332239,3427,0,-1310,14510,4422,2665,761,-368,684636,500,13.193359000000001
82.3109644581273,277.45667559036497,319.71972744341497,392.78095690600503,619.775700513565,552.101515138347,-0.0709212742513046,-145.98135836306002,3427,0,-1310,14510,4422,2665,761,-368,684637,500,13.193406000000001
270.368360997934,349.474023539573,207.40161741594798,24.8944945715775,-290.096616646653,-63.4792658949154,210.124572948611,124.02657814638201,3427,0,-1310,14510,4422,2665,761,-368,684638,500,13.193465000000002
121.174226433563,190.029184108716,79.5842928173952,-69.0936008683639,-63.674438030837294,149.46413548052098,5.28223304619314,-65.4717053084169,3427,0,-1310,14510,4422,2665,761,-368,684639,500,13.193525000000001
257.056137904437,256.160921650589,72.60955992143141,-56.568173116946106,137.066553647193,159.005724695278,-32.0403963730205,2.79179506341461,3427,0,-1310,14510,4422,2665,761,-368,684640,500,13.193578
285.893989428849,259.844498639111,105.468928846763,-27.303254695027103,-125.802924123767,-182.370514526032,9.6102657589945,88.0901562836953,3427,0,-1310,14510,4422,2665,761,-368,684641,500,13.193635
147.411127819651,31.928998476942102,-84.68534862110391,-182.24578200667702,-597.0527558822071,-420.101924298797,9.996827218797991,42.1391079379246,3427,0,-1310,14510,4422,2665,761,-368,684642,500,13.193705000000001
39.470474872417995,-114.635629327269,-132.343464959064,29.4586202680657,-289.259673260181,-754.222732397786,-72.10277202422729,-28.0834219312528,3427,0,-1310,14510,4422,2665,761,-368,684643,500,13.193763
-20.4177074379695,-42.7287974002538,6.429311260930259,113.306108058372,-135.354596857942,-780.0551472431401,-74.6683410285041,-97.4279233645648,3427,0,-1310,14510,4422,2665,761,-368,684644,500,13.193837
2.9237256203196003,60.0816318549914,17.2630875906907,102.68992761051001,135.883403605461,-257.980168452195,-57.3240166933392,-128.140281898086,3427,0,-1310,14510,4422,2665,761,-368,684645,500,13.193897000000002
-44.5824256023334,27.4500776074128,29.9483889132971,148.845829388883,202.992151945247,-246.244013377407,-97.831320534111,-164.42656037351102,3427,0,-1312,15093,4397,1496,595,-399,684646,500,13.193959000000001
-32.8625487778918,-65.3935794614954,-198.01249615393996,-271.647500231134,-232.586976915831,75.4040824387921,18.1892277292791,-65.1037573900539,3427,0,-1312,15093,4397,1496,595,-399,684647,500,13.194038
228.14257768253398,174.836001679651,39.9668890739558,-57.837730549596,-65.4760310103884,554.0194321218299,164.560099022463,134.343394443044,3427,0,-1312,15093,4397,1496,595,-399,684648,500,13.194108
88.3808555292489,-61.9581966242986,-118.550665295217,246.71643946703998,-26.6551461276249,198.845531026949,69.6038071272196,42.1144472589949,3427,0,-1312,15093,4397,1496,595,-399,684649,500,13.194178
-162.926089879009,-409.079995519365,-369.489925762406,377.527097346669,17.644473739433998,-150.907075287367,20.5491646950832,-54.926890862989204,3427,0,-1312,15093,4397,1496,595,-399,684650,500,13.194252
-345.501111771358,-440.80836367153097,-269.46980705543,-92.5396029892436,35.552792209375205,-224.993377561041,151.974378466373,-88.1482232363196,3427,0,-1312,15093,4397,1496,595,-399,684651,500,13.194325000000001
-453.239135688229,-408.52345792274,134.391957485583,503.594718135864,411.97848682574096,-275.28951172658697,62.13448715687261,-200.45093756716201,3427,0,-1312,15093,4397,1496,595,-399,684652,500,13.194408000000001
-808.050534492999,-2145.49407081527,-2209.5346368909804,-916.096369662526,-179.252864283597,-85.45390310732179,111.544795901456,-148.368981354986,3427,0,-1312,15093,4397,1496,595,-399,684653,500,13.194499
-1248.8303207616802,-2985.19905464177,-3440.9205572052197,-1802.26834426672,-1058.23663426776,-382.933760252607,114.62137239251801,-311.580791093409,3427,0,-1312,15093,4397,1496,595,-399,684654,500,13.242705
-193.437313058937,-575.6817099183099,-1000.80158977385,-767.322902830259,-1228.59240392476,-760.158405263384,81.88016627135221,-80.2124360231683,3427,0,-1312,15093,4397,1496,595,-399,684655,500,13.242778000000001
712.6404799240989,1596.07561617147,1448.6347131168,-410.08783661152097,-2030.78272695697,-1377.10409725358,-316.154016550572,-48.4919849724974,3427,0,-1364,15372,4472,-39,476,-32,684656,500,13.242829
850.1407087447881,1700.48868786078,1541.0660109802802,-32.4541139627108,-667.440086065617,-80.2860890121665,-248.106941132108,49.4152497854084,3427,0,-1364,15372,4472,-39,476,-32,684657,500,13.242882000000002
476.098664834455,754.135083016474,525.24922883301,-435.650786252605,-1131.7021660234,4.86385826132027,36.73054319527,125.229225599091,3427,0,-1364,15372,4472,-39,476,-32,684658,500,13.242937000000001
-154.646357148828,-178.442717010505,-196.672620348167,-499.89656773884803,-537.7449136341751,353.28678740974294,-78.49517969245791,-174.550810593297,3427,0,-1364,15372,4472,-39,476,-32,684659,500,13.242993
-408.828808853665,-515.044835585984,-163.26806400599898,128.326963220024,1114.11221276055,986.5249792069659,-100.85424668318599,-276.799873675918,3427,0,-1364,15372,4472,-39,476,-32,684660,500,13.24305
-383.55956976761803,-547.311943231267,10.837719063740199,445.607698842621,1110.58489785032,530.620747977227,-76.22406572679759,-218.761804266949,3427,0,-1364,15372,4472,-39,476,-32,684661,500,13.243112
-169.779047689517,-271.093286210671,23.7694696595427,557.178311398893,1079.23316537408,387.456552223186,-9.16738173860358,-141.564996112837,3427,0,-1364,15372,4472,-39,476,-32,684662,500,13.244412
403.062127082783,671.471628373954,603.9679238846289,279.772741553723,-212.833421068353,-647.312939963711,-87.04094076680491,21.1292719640769,3427,0,-1364,15372,4472,-39,476,-32,684663,500,13.244492000000001
32.624953311693396,113.60768742626499,237.80703241471198,-66.7230904334574,17.762803615274603,-473.65824221482,-264.306987864315,-178.93888592172902,3427,0,-1364,15372,4472,-39,476,-32,684664,500,13.244564
-246.73161943218997,-358.78824713488603,80.92109810572579,170.464755544963,401.496851983044,223.53825034556198,-136.256383084517,-226.445919342688,3427,0,-1364,15372,4472,-39,476,-32,684665,500,13.24465
-261.23468491892004,-544.040710874018,-163.446011924068,202.95345880681998,-89.1048493332637,-381.838150672847,0.137956511753146,-160.063733497867,3427,0,-1394,15408,4525,-1615,79,400,684666,500,13.244728
-44.0035068351426,-206.235380099155,-2.28785274445545,432.78399621477007,361.53874234561204,-152.84283233044,46.3856031598989,-89.5355057973647,3427,0,-1394,15408,4525,-1615,79,400,684667,500,13.244810000000001
501.43416369037004,819.006998284836,861.4239934394141,889.282861734071,1195.09538712504,801.7148516844611,46.341568637464704,41.7277596953791,3427,0,-1394,15408,4525,-1615,79,400,684668,500,13.244897000000002
262.931241248734,557.4314677194931,640.076433795737,503.311793762667,-109.414947825106,548.843959333957,23.440101519518105,-29.386553028482,3427,0,-1394,15408,4525,-1615,79,400,684669,500,13.244990000000001
345.395195768564,613.124401922571,899.459872859996,1338.48636526489,90.0076871041674,299.10934233688704,70.38594388525229,27.587874010787303,3427,0,-1394,15408,4525,-1615,79,400,684670,500,13.245085000000001
143.598114719352,-161.680344837718,-537.77477077255,-633.223118928989,449.910825715458,228.374724440335,56.12425036571221,-5.58743310719728,3427,0,-1394,15408,4525,-1615,79,400,684671,500,13.245170000000002
164.927080765192,-178.512173947878,-387.91500632849096,-366.218686704291,-157.63823876236,-332.396193533903,71.8508409108035,48.1076927292161,3427,0,-1394,15408,4525,-1615,79,400,684672,500,13.245273000000001
106.483521669434,62.253479619859704,72.1248859426705,315.832991941279,123.858797570341,-301.828449510911,-8.02142112469301,-121.46877073240499,3427,0,-1394,15408,4525,-1615,79,400,684673,500,13.245367000000002
95.471693116473,75.42339232924859,-25.112134217284602,-287.60903134066,-13.550255889247598,-100.706228787778,-42.1773550476064,-205.448140058317,3427,0,-1394,15408,4525,-1615,79,400,684674,500,13.245477000000001
14.0376469838084,-153.05446343869,-131.071353074629,-295.206295286829,-21.049567463371197,-24.322428678046,-63.9801455936395,-189.989847938297,3427,0,-1394,15408,4525,-1615,79,400,684675,500,13.245579000000001
48.894552677433204,-269.361032353831,-203.90234862884998,-208.29120790696498,-66.2167617543309,107.751996036561,4.9227547849295705,-33.6051709380699,3427,0,-1297,15257,4574,-1332,23,574,684676,500,13.245694
-12.085389623476699,-396.129573013866,-253.95342584408402,-223.81544981047,-209.19819988886601,250.09782648168,71.97126838483379,3.56585897435434,3427,0,-1297,15257,4574,-1332,23,574,684677,500,13.245803
-267.077621716948,-438.818568237126,-137.413882237859,-62.250209266407204,-113.874289089494,295.256612472585,162.02957901795202,-100.839408016996,3427,0,-1297,15257,4574,-1332,23,574,684678,500,13.245909000000001
-88.5829384555982,-201.71455057954898,-0.46185493154916896,-40.830857854889494,-150.910808019224,164.940534805879,85.0012718316866,-64.81244505289939,3427,0,-1297,15257,4574,-1332,23,574,684679,500,13.246023000000001
255.629330915632,320.622888242942,208.31718220829498,58.8285703890724,-14.5670482451969,76.9889480752754,8.931545923522211,-34.201569191645795,3427,0,-1297,15257,4574,-1332,23,574,684680,500,13.305742
609.445556776976,736.0565156337109,331.99990938883303,-59.3955277578498,-170.09926761992398,-217.560307447799,32.1922967189457,96.3967594220303,3427,0,-1297,15257,4574,-1332,23,574,684681,500,13.305805000000001
256.240858244419,274.75791660801,86.43895993987101,-201.978337115113,-568.144139293028,-681.334600727365,42.242606731364496,6.73623564105947,3427,0,-1297,15257,4574,-1332,23,574,684682,500,13.305857000000001
-30.950865237420697,-81.41621747706091,-140.158917997265,-359.666360062693,-962.189753184211,-1199.90915480722,-5.47153123351745,-115.59226097527399,3427,0,-1297,15257,4574,-1332,23,574,684683,500,13.305909000000002
7.418820113991389,-24.7095962867606,61.4018250459339,141.495198541816,67.7928411785106,-469.777916596446,-67.4958029217669,-120.12029112631001,3427,0,-1297,15257,4574,-1332,23,574,684684,500,13.305976000000001
-135.55276237599898,-270.80901702819403,-295.061066360329,-303.691192264523,-236.77201833663298,-134.319555822643,-94.9555048677721,-195.1430493386,3427,0,-1297,15257,4574,-1332,23,574,684685,500,13.306033000000001
-99.8467850192683,-306.131594503997,-439.367963327677,-338.85152317246,-71.4572310759395,121.430211959407,-65.4250316525577,-141.028010600712,3427,0,-1114,14996,4560,-927,262,436,684686,500,13.306090000000001
188.822520773858,122.08470652252399,112.773105553002,184.925924807467,510.16312109015405,483.29354818421405,-1.47964329971001,20.735126241925197,3427,0,-1114,14996,4560,-927,262,436,684687,500,13.306151000000002
124.080876531079,-88.06765237078069,-50.526388246798895,38.3327619377233,374.96544184072997,325.85846510034804,76.57345846702809,61.227826304850204,3427,0,-1114,14996,4560,-927,262,436,684688,500,13.306214
105.855175561912,-215.09876166586798,-280.353137568687,-521.817219838267,-1256.13426618717,-629.589135195827,41.355513052199996,59.4751147947973,3427,0,-1114,14996,4560,-927,262,436,684689,500,13.306282000000001
175.302593666391,204.03787118673802,271.798231238965,167.231174587563,-822.679708992218,-255.373006430455,43.3443530714139,42.8357633320848,3427,0,-1114,14996,4560,-927,262,436,684690,500,13.306353000000001
-45.304280207550605,-39.9276427286677,-214.464870931348,249.43303212869802,806.833470590034,70.4551592011703,-122.636464905867,-124.646913825185,3427,0,-1114,14996,4560,-927,262,436,684691,500,13.306425
-221.41713291205798,-413.013246708317,-665.8285485699311,-294.467828254856,688.8348872700591,422.024063981371,-141.452775400365,-174.758638055995,3427,0,-1114,14996,4560,-927,262,436,684692,500,13.306497
-318.80356899835203,-804.2797840874409,-926.6927459030409,-930.939625256171,-965.0426689700109,-217.60397453315102,26.7957388894283,-71.20079270261341,3427,0,-1114,14996,4560,-927,262,436,684693,500,13.30657
-335.461650707584,-813.9988601084331,-848.3767184764149,-1102.30346276605,-1988.0688155483801,-885.01077902416,34.9364854712621,-60.358023991226204,3427,0,-1114,14996,4560,-927,262,436,684694,500,13.306648000000001
-76.63082902645691,-102.104832467507,-161.83893524203398,-245.937932870846,-348.914013893926,-404.22142092185095,101.605231702444,-13.8734238643665,3427,0,-1114,14996,4560,-927,262,436,684695,500,13.306729
10.0338974671904,371.347802239936,757.612179358024,871.0358369268649,1483.44044785068,917.251612206921,-56.15546875074511,-160.755549236783,3427,0,-1060,14926,4434,-665,644,298,684696,500,13.306826000000001
389.764875092515,696.767756633228,896.392006419948,578.807084918546,147.64761490013902,-39.580196351395,-45.988249410525896,40.026575676864,3427,0,-1060,14926,4434,-665,644,298,684697,500,13.306913000000002
507.35826111273497,788.541197535582,756.148396231001,448.21058526411105,372.81185510027,261.696130673343,60.44719678419639,182.65000656014303,3427,0,-1060,14926,4434,-665,644,298,684698,500,13.30701
270.683327701496,450.833005415159,512.2893530415599,427.545712220977,584.218448493397,596.962263424241,7.54546584910713,54.179973551305,3427,0,-1060,14926,4434,-665,644,298,684699,500,13.307107
256.57125784675,331.973563526641,316.174063488608,120.923196622869,127.152106125082,94.26510294945909,68.5911423184443,85.3177847105544,3427,0,-1060,14926,4434,-665,644,298,684700,500,13.307205000000002
339.018740413594,420.290873500635,492.169039272354,328.910573003814,-163.224562815245,-130.865427181125,129.86554638156701,178.669420767692,3427,0,-1060,14926,4434,-665,644,298,684701,500,13.307304
134.224404431501,228.246099052834,435.397775061894,554.162661239359,359.934562682378,220.212170729414,55.2201775337453,23.4054648044985,3427,0,-1060,14926,4434,-665,644,298,684702,500,13.308542000000001
-88.88643342838621,-144.25872376363301,-144.385910252808,-135.678984575905,71.61196124399429,-350.330882294686,17.279666674032303,-81.2269325710367,3427,0,-1060,14926,4434,-665,644,298,684703,500,13.308676
-112.445851648343,-236.838392547215,-238.93173334165502,-381.639815206843,-673.217454835802,-879.9479758347729,13.5996458695736,-60.331227251561394,3427,0,-1060,14926,4434,-665,644,298,684704,500,13.308789
-107.881756695861,-312.35271055111696,-151.42568813892998,-241.92183998069999,-550.122374414117,-387.308084155316,35.8024502496701,-7.89421600045171,3427,0,-1060,14926,4434,-665,644,298,684705,500,13.308911
-147.095261266222,-345.174421063042,-6.375431935884991,-113.87661016482201,-421.586677589657,96.21376265626171,73.6265257690102,-18.7177348795813,3427,0,-1195,14925,4251,103,813,72,684706,500,13.309034
-370.650111623603,-434.21625591442,195.49474264215698,66.2363798881706,-387.0579764628201,54.9581406681682,-3.30544979393017,-160.579866109998,3427,0,-1195,14925,4251,103,813,72,684707,500,13.309155
-62.7256861482456,114.862248329562,669.110301312059,974.501067270699,1436.7917706185299,942.374580609379,28.0480155642726,-70.1150111764437,3427,0,-1195,14925,4251,103,813,72,684708,500,13.309291
185.706102138647,182.068728383863,78.4453936578939,613.302482814383,1300.99773436366,536.739447651838,4.3527985841501495,50.029019869863994,3427,0,-1195,14925,4251,103,813,72,684709,500,13.309416
0.0,0.0,0.0,0.0,0.0,0.0,0.0,0.0,0,0,0,0,0,0,0,0,0,0,0.0
0.0,0.0,0.0,0.0,0.0,0.0,0.0,0.0,0,0,0,0,0,0,0,0,0,0,0.0
0.0,0.0,0.0,0.0,0.0,0.0,0.0,0.0,0,0,0,0,0,0,0,0,0,0,0.0
0.0,0.0,0.0,0.0,0.0,0.0,0.0,0.0,0,0,0,0,0,0,0,0,0,0,0.0
0.0,0.0,0.0,0.0,0.0,0.0,0.0,0.0,0,0,0,0,0,0,0,0,0,0,0.0
0.0,0.0,0.0,0.0,0.0,0.0,0.0,0.0,0,0,0,0,0,0,0,0,0,0,0.0
0.0,0.0,0.0,0.0,0.0,0.0,0.0,0.0,0,0,0,0,0,0,0,0,0,0,0.0
0.0,0.0,0.0,0.0,0.0,0.0,0.0,0.0,0,0,0,0,0,0,0,0,0,0,0.0
0.0,0.0,0.0,0.0,0.0,0.0,0.0,0.0,0,0,0,0,0,0,0,0,0,0,0.0
0.0,0.0,0.0,0.0,0.0,0.0,0.0,0.0,0,0,0,0,0,0,0,0,0,0,0.0
0.0,0.0,0.0,0.0,0.0,0.0,0.0,0.0,0,0,0,0,0,0,0,0,0,0,0.0
0.0,0.0,0.0,0.0,0.0,0.0,0.0,0.0,0,0,0,0,0,0,0,0,0,0,0.0
0.0,0.0,0.0,0.0,0.0,0.0,0.0,0.0,0,0,0,0,0,0,0,0,0,0,0.0
0.0,0.0,0.0,0.0,0.0,0.0,0.0,0.0,0,0,0,0,0,0,0,0,0,0,0.0
0.0,0.0,0.0,0.0,0.0,0.0,0.0,0.0,0,0,0,0,0,0,0,0,0,0,0.0
0.0,0.0,0.0,0.0,0.0,0.0,0.0,0.0,0,0,0,0,0,0,0,0,0,0,0.0
0.0,0.0,0.0,0.0,0.0,0.0,0.0,0.0,0,0,0,0,0,0,0,0,0,0,0.0
0.0,0.0,0.0,0.0,0.0,0.0,0.0,0.0,0,0,0,0,0,0,0,0,0,0,0.0
0.0,0.0,0.0,0.0,0.0,0.0,0.0,0.0,0,0,0,0,0,0,0,0,0,0,0.0
0.0,0.0,0.0,0.0,0.0,0.0,0.0,0.0,0,0,0,0,0,0,0,0,0,0,0.0
0.0,0.0,0.0,0.0,0.0,0.0,0.0,0.0,0,0,0,0,0,0,0,0,0,0,0.0
0.0,0.0,0.0,0.0,0.0,0.0,0.0,0.0,0,0,0,0,0,0,0,0,0,0,0.0
0.0,0.0,0.0,0.0,0.0,0.0,0.0,0.0,0,0,0,0,0,0,0,0,0,0,0.0
0.0,0.0,0.0,0.0,0.0,0.0,0.0,0.0,0,0,0,0,0,0,0,0,0,0,0.0
0.0,0.0,0.0,0.0,0.0,0.0,0.0,0.0,0,0,0,0,0,0,0,0,0,0,0.0
0.0,0.0,0.0,0.0,0.0,0.0,0.0,0.0,0,0,0,0,0,0,0,0,0,0,0.0
0.0,0.0,0.0,0.0,0.0,0.0,0.0,0.0,0,0,0,0,0,0,0,0,0,0,0.0
0.0,0.0,0.0,0.0,0.0,0.0,0.0,0.0,0,0,0,0,0,0,0,0,0,0,0.0
0.0,0.0,0.0,0.0,0.0,0.0,0.0,0.0,0,0,0,0,0,0,0,0,0,0,0.0
0.0,0.0,0.0,0.0,0.0,0.0,0.0,0.0,0,0,0,0,0,0,0,0,0,0,0.0
0.0,0.0,0.0,0.0,0.0,0.0,0.0,0.0,0,0,0,0,0,0,0,0,0,0,0.0
0.0,0.0,0.0,0.0,0.0,0.0,0.0,0.0,0,0,0,0,0,0,0,0,0,0,0.0
0.0,0.0,0.0,0.0,0.0,0.0,0.0,0.0,0,0,0,0,0,0,0,0,0,0,0.0
0.0,0.0,0.0,0.0,0.0,0.0,0.0,0.0,0,0,0,0,0,0,0,0,0,0,0.0
0.0,0.0,0.0,0.0,0.0,0.0,0.0,0.0,0,0,0,0,0,0,0,0,0,0,0.0
0.0,0.0,0.0,0.0,0.0,0.0,0.0,0.0,0,0,0,0,0,0,0,0,0,0,0.0
0.0,0.0,0.0,0.0,0.0,0.0,0.0,0.0,0,0,0,0,0,0,0,0,0,0,0.0
0.0,0.0,0.0,0.0,0.0,0.0,0.0,0.0,0,0,0,0,0,0,0,0,0,0,0.0
0.0,0.0,0.0,0.0,0.0,0.0,0.0,0.0,0,0,0,0,0,0,0,0,0,0,0.0
0.0,0.0,0.0,0.0,0.0,0.0,0.0,0.0,0,0,0,0,0,0,0,0,0,0,0.0
0.0,0.0,0.0,0.0,0.0,0.0,0.0,0.0,0,0,0,0,0,0,0,0,0,0,0.0
0.0,0.0,0.0,0.0,0.0,0.0,0.0,0.0,0,0,0,0,0,0,0,0,0,0,0.0
0.0,0.0,0.0,0.0,0.0,0.0,0.0,0.0,0,0,0,0,0,0,0,0,0,0,0.0
0.0,0.0,0.0,0.0,0.0,0.0,0.0,0.0,0,0,0,0,0,0,0,0,0,0,0.0
0.0,0.0,0.0,0.0,0.0,0.0,0.0,0.0,0,0,0,0,0,0,0,0,0,0,0.0
0.0,0.0,0.0,0.0,0.0,0.0,0.0,0.0,0,0,0,0,0,0,0,0,0,0,0.0
0.0,0.0,0.0,0.0,0.0,0.0,0.0,0.0,0,0,0,0,0,0,0,0,0,0,0.0
0.0,0.0,0.0,0.0,0.0,0.0,0.0,0.0,0,0,0,0,0,0,0,0,0,0,0.0
0.0,0.0,0.0,0.0,0.0,0.0,0.0,0.0,0,0,0,0,0,0,0,0,0,0,0.0
0.0,0.0,0.0,0.0,0.0,0.0,0.0,0.0,0,0,0,0,0,0,0,0,0,0,0.0
0.0,0.0,0.0,0.0,0.0,0.0,0.0,0.0,0,0,0,0,0,0,0,0,0,0,0.0
0.0,0.0,0.0,0.0,0.0,0.0,0.0,0.0,0,0,0,0,0,0,0,0,0,0,0.0
0.0,0.0,0.0,0.0,0.0,0.0,0.0,0.0,0,0,0,0,0,0,0,0,0,0,0.0
0.0,0.0,0.0,0.0,0.0,0.0,0.0,0.0,0,0,0,0,0,0,0,0,0,0,0.0
0.0,0.0,0.0,0.0,0.0,0.0,0.0,0.0,0,0,0,0,0,0,0,0,0,0,0.0
0.0,0.0,0.0,0.0,0.0,0.0,0.0,0.0,0,0,0,0,0,0,0,0,0,0,0.0
0.0,0.0,0.0,0.0,0.0,0.0,0.0,0.0,0,0,0,0,0,0,0,0,0,0,0.0
0.0,0.0,0.0,0.0,0.0,0.0,0.0,0.0,0,0,0,0,0,0,0,0,0,0,0.0
0.0,0.0,0.0,0.0,0.0,0.0,0.0,0.0,0,0,0,0,0,0,0,0,0,0,0.0
0.0,0.0,0.0,0.0,0.0,0.0,0.0,0.0,0,0,0,0,0,0,0,0,0,0,0.0
0.0,0.0,0.0,0.0,0.0,0.0,0.0,0.0,0,0,0,0,0,0,0,0,0,0,0.0
0.0,0.0,0.0,0.0,0.0,0.0,0.0,0.0,0,0,0,0,0,0,0,0,0,0,0.0
0.0,0.0,0.0,0.0,0.0,0.0,0.0,0.0,0,0,0,0,0,0,0,0,0,0,0.0
0.0,0.0,0.0,0.0,0.0,0.0,0.0,0.0,0,0,0,0,0,0,0,0,0,0,0.0
0.0,0.0,0.0,0.0,0.0,0.0,0.0,0.0,0,0,0,0,0,0,0,0,0,0,0.0
0.0,0.0,0.0,0.0,0.0,0.0,0.0,0.0,0,0,0,0,0,0,0,0,0,0,0.0
0.0,0.0,0.0,0.0,0.0,0.0,0.0,0.0,0,0,0,0,0,0,0,0,0,0,0.0
0.0,0.0,0.0,0.0,0.0,0.0,0.0,0.0,0,0,0,0,0,0,0,0,0,0,0.0
0.0,0.0,0.0,0.0,0.0,0.0,0.0,0.0,0,0,0,0,0,0,0,0,0,0,0.0
0.0,0.0,0.0,0.0,0.0,0.0,0.0,0.0,0,0,0,0,0,0,0,0,0,0,0.0
0.0,0.0,0.0,0.0,0.0,0.0,0.0,0.0,0,0,0,0,0,0,0,0,0,0,0.0
0.0,0.0,0.0,0.0,0.0,0.0,0.0,0.0,0,0,0,0,0,0,0,0,0,0,0.0
0.0,0.0,0.0,0.0,0.0,0.0,0.0,0.0,0,0,0,0,0,0,0,0,0,0,0.0
0.0,0.0,0.0,0.0,0.0,0.0,0.0,0.0,0,0,0,0,0,0,0,0,0,0,0.0
0.0,0.0,0.0,0.0,0.0,0.0,0.0,0.0,0,0,0,0,0,0,0,0,0,0,0.0
0.0,0.0,0.0,0.0,0.0,0.0,0.0,0.0,0,0,0,0,0,0,0,0,0,0,0.0
0.0,0.0,0.0,0.0,0.0,0.0,0.0,0.0,0,0,0,0,0,0,0,0,0,0,0.0
0.0,0.0,0.0,0.0,0.0,0.0,0.0,0.0,0,0,0,0,0,0,0,0,0,0,0.0
