CH1,CH2,CH3,CH4,CH5,CH6,CH7,CH8,Vbat,Trigger,AccX,AccY,AccZ,GyX,GyY,GyZ,N,fs,Timestamp
-21.7540682685794,-132.57992778357598,-282.731610756367,-283.035448337527,-576.214196287503,-301.701879086788,163.935638537339,94.43202313128859,3429,0,-372,14414,4900,634,275,-338,682771,500,9.455667
-25.1764406706498,107.59719191689501,-91.61288660066201,-472.043531393254,-1166.3476545772,-925.3364996559101,3.15428183873883,-27.8140778151574,3429,0,-372,14414,4900,634,275,-338,682772,500,9.455699000000001
116.53186943751601,496.813981278334,489.652554884553,199.923990030424,-138.203152481437,-460.94477172917703,-54.2572686338681,-44.189140288159294,3429,0,-372,14414,4900,634,275,-338,682773,500,9.45573
-41.6579046504339,75.2225758708082,18.2189592157956,-41.810605435195605,-508.174830784672,-433.62008810194703,7.30606216512388,-65.3267116228817,3429,0,-372,14414,4900,634,275,-338,682774,500,9.455762
-295.25773357832804,-722.705592230428,-973.0199527625231,-275.556089842983,-236.51506570703398,-118.433197602048,22.3879853684339,-90.17274289752821,3429,0,-372,14414,4900,634,275,-338,682775,500,9.455796000000001
-546.6728149805571,-1044.57401479036,-1196.5951008233199,131.61332047308701,1353.4440903592,973.906916150998,79.01803357002791,-117.686202478828,3429,0,-703,14559,4814,580,170,-150,682776,500,9.455831
-483.88423637926496,-483.910309199826,-606.434372902964,79.5508572433027,660.734738095169,714.985377280856,118.044108862581,-141.87022290949199,3429,0,-703,14559,4814,580,170,-150,682777,500,9.45587
182.336971005687,475.219392778003,366.92261039384204,170.241137994541,-95.89358112163609,128.351644084905,27.391185936343398,92.6273609674536,3429,0,-703,14559,4814,580,170,-150,682778,500,9.455908
497.388904627122,1160.99773555005,1548.72176091222,1381.73176505743,-459.48343224171504,-585.117092832224,-322.492278972291,34.019032476237,3429,0,-703,14559,4814,580,170,-150,682779,500,9.455953000000001
93.98343638636291,278.978737765225,253.19877060432898,-134.88804178781,-635.6654950998201,-713.28035963478,-139.320787718927,-28.827471482800302,3429,0,-703,14559,4814,580,170,-150,682780,500,9.455993000000001
54.3543448458076,24.0859874325106,-17.5034149109852,335.054359587491,364.985613483965,-279.342261077603,-50.849648205563405,21.4053012450458,3429,0,-703,14559,4814,580,170,-150,682781,500,9.456035
-28.506834245257803,-205.762233595247,-566.054629276739,-294.005849785375,-67.9307326978887,-447.05991420830804,-70.8059240734437,3.4351891180267597,3429,0,-703,14559,4814,580,170,-150,682782,500,9.456079
-33.813675527198896,-119.70199977338801,-368.386192728532,-239.451460840792,-437.800945999043,-694.152794573747,-100.44767441001,-45.1167848240584,3429,0,-703,14559,4814,580,170,-150,682783,500,9.456122
176.59002331682098,354.83676658128405,459.844627434504,599.490617339936,453.06018823167,358.70610532985296,-68.1030536815524,25.195127065293498,3429,0,-703,14559,4814,580,170,-150,682784,500,9.456166000000001
93.1916497306374,240.106588864233,110.062727023032,-496.95392890326895,185.99542351305698,391.738033602713,6.57141490204958,30.0344994779443,3429,0,-703,14559,4814,580,170,-150,682785,500,9.456213
-0.10012469967478,171.518304309575,107.486990282778,-178.504516919609,677.5055923524201,741.347159504774,-41.917688405083,-84.43729319178959,3429,0,-1036,14867,4897,369,-606,251,682786,500,9.487003000000001
88.6349390300165,223.02936282695703,114.87666478043,6.78814121303731,750.4465824105721,661.237935782992,-143.46192285599,-58.35179037787021,3429,0,-1036,14867,4897,369,-606,251,682787,500,9.487034000000001
-130.809182868135,-145.47251953184602,-339.922468464123,-406.48113697083295,594.879358775506,838.489700599341,-149.326565844996,-105.133227919112,3429,0,-1036,14867,4897,369,-606,251,682788,500,9.487062
-349.49528562737396,-286.767741071759,-284.205703917542,-22.557848943281,1009.65436511108,1349.38132338936,-262.436712034396,-302.37577696680097,3429,0,-1036,14867,4897,369,-606,251,682789,500,9.487085
-496.86826996749704,-460.074615684804,-366.310557254823,79.316745208198,916.374505731947,930.6497886464931,-222.080881874543,-361.993838801165,3429,0,-1036,14867,4897,369,-606,251,682790,500,9.487109
-372.082405198627,-420.525003552437,-559.66905810521,-816.8114828221151,-1561.76125913893,-1218.96396123775,7.58524374791887,-176.39161428471598,3429,0,-1036,14867,4897,369,-606,251,682791,500,9.487688
245.05165387681302,126.351566706551,-285.517716190894,-1252.5436549440199,-2877.0122149090503,-1794.4229312199698,325.807699086086,303.0361535548,3429,0,-1036,14867,4897,369,-606,251,682792,500,9.487719
-38.9084683331894,-259.777651492041,-676.6137490620599,-1382.67396396413,-2147.48951997198,-1094.60501916771,121.307908138202,98.73006000637541,3429,0,-1036,14867,4897,369,-606,251,682793,500,9.487747
24.5151929582062,-26.939563270891103,-163.45891536132,-147.705088209856,-7.9230399109656,-608.19510108442,59.47534110001289,38.083403557306205,3429,0,-1036,14867,4897,369,-606,251,682794,500,9.487782000000001
-79.80350607060251,-125.938078002073,-117.80413038469901,-42.142072386690394,5.13933037241804,-156.654166522145,37.1686999223311,-44.663566559786,3429,0,-1036,14867,4897,369,-606,251,682795,500,9.487816
-443.1778858201,-686.781142059132,-373.81997539743304,31.2982095995976,738.504431064241,512.847062519344,73.7701924740686,-122.40046963468201,3429,0,-787,15381,4573,598,-195,84,682796,500,9.487847
-734.4223761928729,-1215.7498953680001,-648.486491829972,257.85082762310003,695.5102960084621,673.119432519597,163.574016943225,-156.430715850554,3429,0,-787,15381,4573,598,-195,84,682797,500,9.487878
-336.316110749583,-629.044435434858,-178.362855053158,702.175854267785,702.713092054211,577.9586402414129,288.02483571693296,27.6005739622051,3429,0,-787,15381,4573,598,-195,84,682798,500,9.487916
376.81816954648804,737.4060812065151,803.638769066543,1000.80645465699,1142.0780037285301,890.405753255822,193.27979949122502,163.620301533258,3429,0,-787,15381,4573,598,-195,84,682799,500,9.487951
501.678089464607,1110.90482653235,976.361284292419,938.913630566793,1047.23837676749,672.230621021707,160.32886304619,177.691719597089,3429,0,-787,15381,4573,598,-195,84,682800,500,9.534568
304.97279681309,555.511762132868,309.16045294376096,320.265215186082,125.75135463420901,-380.97446473251296,-51.0912081628339,66.3684138733661,3429,0,-787,15381,4573,598,-195,84,682801,500,9.534601
83.88081128342309,172.98818415345198,-25.7593329019146,72.0472004685143,-73.7046423250285,-566.390562881832,-32.301200091606,20.0324522599112,3429,0,-787,15381,4573,598,-195,84,682802,500,9.534626000000001
-62.903774864797,23.7963513695868,-49.4280880833976,6.79413895928883,10.563220986747199,-345.01426095463097,-53.494422301068,-86.3441829255316,3429,0,-787,15381,4573,598,-195,84,682803,500,9.534653
80.3335481096001,129.871967800427,168.681013079011,146.073667020217,174.271796182118,-15.089348744077101,-26.7210671603098,13.322715718299198,3429,0,-787,15381,4573,598,-195,84,682804,500,9.53468
12.098531841998902,22.949877842329396,1.46747066616081,-80.1029723333486,-337.830807169201,27.4984211852425,-8.23097491730005,6.4073632610961795,3429,0,-787,15381,4573,598,-195,84,682805,500,9.534709000000001
-65.2223149167839,113.13012894033501,134.46588800521602,-6.321877216571011,42.896572248602794,640.957394384895,-7.8588938277098395,-47.12795799225571,3429,0,-517,15698,4365,56,262,58,682806,500,9.534739
231.07982113387,553.965969474404,573.859515670454,513.723926275125,266.824631059775,779.669701939216,40.208670512191,71.9252157500014,3429,0,-517,15698,4365,56,262,58,682807,500,9.534769
219.586360726185,428.80209441424796,461.18310529703695,752.981361266779,1260.08670658647,1031.89377503737,136.367965751269,118.93286667915501,3429,0,-517,15698,4365,56,262,58,682808,500,9.5348
34.3222149659123,166.059942136519,114.377816955326,394.96117530966904,752.2637368779981,671.761165652308,90.20911888027331,-3.58803917840123,3429,0,-517,15698,4365,56,262,58,682809,500,9.534832
51.11327111578429,99.3791313024703,-9.476933351019401,58.290074545017006,-169.601817264513,-219.52976972051002,151.947754736815,80.132948950748,3429,0,-517,15698,4365,56,262,58,682810,500,9.534867
-143.975319303456,-299.37788367620703,-343.452592928428,-185.73560433700902,-615.869109271443,-717.089489605452,94.6536408637185,3.80589554354083,3429,0,-517,15698,4365,56,262,58,682811,500,9.534902
-266.066043268045,-613.643843294238,-676.22538745089,-504.21885627449996,-301.292159317149,-520.735212608182,72.85241221601609,-10.949625231442,3429,0,-517,15698,4365,56,262,58,682812,500,9.534939000000001
-333.953128562309,-591.056226590648,-642.0986519630529,-685.5431621964669,-526.2610157173481,-384.44982832163805,55.29556048678929,-67.2577958084876,3429,0,-517,15698,4365,56,262,58,682813,500,9.534977000000001
-380.110678359109,-401.778116947273,-448.379743503872,-657.877000676439,-420.46358198727796,18.460226034862,48.8869953823159,-142.735086744069,3429,0,-517,15698,4365,56,262,58,682814,500,9.535016
-748.644449157757,-912.457804964622,-170.60644584253902,674.258345316863,90.4713957407512,131.132903649239,-63.774310511362295,-331.545052857953,3429,0,-517,15698,4365,56,262,58,682815,500,9.535056
-1042.98442444784,-1694.97337524663,-522.355395429651,707.7990651610021,904.077450381417,778.022644634999,48.566693146945894,-297.37251198058897,3429,0,-633,15731,4405,-534,504,-41,682816,500,9.535099
-639.9729123705181,-1074.41824724642,-721.6230770648689,101.914308426378,1219.5584430841,834.468296657724,79.00944799999709,-138.403014146723,3429,0,-633,15731,4405,-534,504,-41,682817,500,9.535147
429.803454635898,1167.1798002651199,1388.11108651932,1616.2963264941598,1282.61534898731,-243.688177331875,-17.1368381229695,163.673687000643,3429,0,-633,15731,4405,-534,504,-41,682818,500,9.535193000000001
654.438143554609,1538.3337706282,1357.74646424851,889.686915610277,1028.8231751046,-532.255417209759,-229.34385490894797,178.753996263142,3429,0,-633,15731,4405,-534,504,-41,682819,500,9.535239
400.23749110626505,759.003023277735,355.823901908239,376.828105551453,752.322547668067,-317.34381994349,-318.648570190475,58.4894784110365,3429,0,-633,15731,4405,-534,504,-41,682820,500,9.535286000000001
342.97607442076,359.048260940588,-258.958438922418,-524.1582699696589,-466.80116131785303,-431.052330828388,8.56038217514288,115.617599649704,3429,0,-633,15731,4405,-534,504,-41,682821,500,9.535337
413.615796503087,458.95962481456803,-208.19328896480098,-909.0496115437131,-1043.62845081455,-383.330807762162,105.108718800824,88.5530915382551,3429,0,-633,15731,4405,-534,504,-41,682822,500,9.535391
174.30206228038898,366.80602157930804,104.29510025784799,-546.770362930431,-685.052453537501,-323.271482344251,93.1226548944833,-7.73915338923689,3429,0,-633,15731,4405,-534,504,-41,682823,500,9.535445000000001
29.3946556526935,254.920154100517,-30.333743214025198,-685.866883186391,-910.281495718373,-326.555500368762,178.66975287970902,-4.44773231062572,3429,0,-633,15731,4405,-534,504,-41,682824,500,9.535499
22.4389144637389,-20.5403855997138,-390.848073187401,-615.506510223611,-529.458213385718,-53.524231096205796,208.48549875919701,69.3587464134907,3429,0,-633,15731,4405,-534,504,-41,682825,500,9.535551
22.5253789920826,-161.385707521811,-485.489758077194,-374.08253152138803,-50.0202009478817,336.3428711007,166.370999435894,69.6973432676168,3429,0,-961,15530,4480,-815,175,-96,682826,500,9.581923
-99.6209123215231,-123.57900849462,-277.825404839474,-311.551828789583,-169.83389304197,452.022944028256,178.438190675923,5.4354692652123,3429,0,-961,15530,4480,-815,175,-96,682827,500,9.581985000000001
14.286168156773801,322.19013618177297,465.867055340088,76.159003869252,-39.7081399416493,459.909838860331,192.33518105157398,54.2692026467994,3429,0,-961,15530,4480,-815,175,-96,682828,500,9.582035000000001
187.388759510126,457.29984583368105,262.157649492729,-103.43521059502399,-241.12958145962298,152.662629845319,92.7640067266766,81.6223079584306,3429,0,-961,15530,4480,-815,175,-96,682829,500,9.582086
130.754426374275,282.643041725736,83.83801059715921,-109.858265894669,-315.80796235793997,-104.047643844562,110.700935216795,96.70567493117409,3429,0,-961,15530,4480,-815,175,-96,682830,500,9.582151000000001
-39.4586189843831,27.675291455234397,-121.07673505134899,-252.340041556628,-474.009816740028,-402.266665129806,58.847287920711096,7.253530171932651,3429,0,-961,15530,4480,-815,175,-96,682831,500,9.582207
-59.4763299220358,-24.366549710626696,-104.803609645693,-383.09516717415,-502.02420772262803,-457.25294442981203,54.344946355908206,4.3803436208982,3429,0,-961,15530,4480,-815,175,-96,682832,500,9.582265000000001
-66.3230281898868,-66.8138290058123,-131.460678569274,-438.665191457549,-489.91921340231795,-424.084953243495,72.7528616240015,-0.444627486751415,3429,0,-961,15530,4480,-815,175,-96,682833,500,9.582324
-64.1379076006415,-134.565816140734,-336.654031548067,-429.924295487901,-345.777908555145,-229.333876963006,82.97807760443541,2.7406424806686096,3429,0,-961,15530,4480,-815,175,-96,682834,500,9.582385
18.515890468203,17.1577324368991,-158.666933233384,-164.889147491369,-60.3235853843798,93.1749417246901,75.1849144666339,38.6796550564468,3429,0,-961,15530,4480,-815,175,-96,682835,500,9.582449
-7.18780223565409,-42.694554228452,-143.883179167053,-13.4630802028405,86.41890670827709,316.253028431733,87.361046938342,38.3934839944122,3429,0,-1034,15218,4521,-737,-27,-122,682836,500,9.582515
-82.2575437039777,-135.585114523303,-187.909427731531,87.37896532329609,139.900856139575,392.43973730428803,45.7193995744456,-23.5028889867244,3429,0,-1034,15218,4521,-737,-27,-122,682837,500,9.582596
48.3251333168009,40.00739468389661,84.63280469749591,207.826956855541,-338.944815748488,112.89222198899401,166.57661572366501,113.130120792659,3429,0,-1034,15218,4521,-737,-27,-122,682838,500,9.582665
-372.266471736511,-700.8410113491119,-421.35384090954904,-415.56580926891195,-2991.08304013024,-1845.5812329785501,180.58094736776502,5.57835094677284,3429,0,-1034,15218,4521,-737,-27,-122,682839,500,9.582742000000001
-1007.20912546306,-1670.90944387205,-479.781935211271,-93.0609643164789,-3112.70008025726,-2106.05647381034,66.2100407996913,-210.936387076857,3429,0,-1034,15218,4521,-737,-27,-122,682840,500,9.582819
-1495.0587326195098,-2045.4692126210998,-236.35644430015202,677.574704644765,512.753456130711,292.093737772375,-49.7164582642727,-512.1887240975631,3429,0,-1034,15218,4521,-737,-27,-122,682841,500,9.582901000000001
-1589.1964563639801,-2258.2593849027803,-1017.5327109796901,-228.946029315295,2117.3452428875,1441.95187086909,229.330189662927,-471.78524550807197,3429,0,-1034,15218,4521,-737,-27,-122,682842,500,9.582982000000001
-660.525082342239,-928.9906882407381,-784.2363768550571,-139.334745939064,1696.43610875972,1149.38080270105,45.7723736909684,-317.586987373419,3429,0,-1034,15218,4521,-737,-27,-122,682843,500,9.583066
655.0673776148179,1625.89762871678,909.965630128747,450.01107861453795,966.6928357522121,370.50130281696295,-175.244851285941,-87.78966081573161,3429,0,-1034,15218,4521,-737,-27,-122,682844,500,9.583160000000001
1172.12692756951,2243.8055424981303,1574.32256545732,1024.0296305957002,889.972133146017,102.181903356744,-16.8653367117513,181.872531076544,3429,0,-1034,15218,4521,-737,-27,-122,682845,500,9.583251
1160.9667469159801,1459.68307167909,878.826423959923,506.66257384303003,407.732361748029,228.745254975162,267.73029389185797,491.884929785621,3429,0,-808,14894,4596,-184,113,-150,682846,500,9.583345000000001
629.177335392538,618.7143184511219,372.842861589161,327.647686492302,549.608906057198,593.211984862166,236.72510873049,328.958406427642,3429,0,-808,14894,4596,-184,113,-150,682847,500,9.583439
618.764706068061,626.945022570551,667.16658348206,716.297084574413,1109.0530886950098,1176.69695807912,325.347377288621,376.740294068004,3429,0,-808,14894,4596,-184,113,-150,682848,500,9.645493
793.294640576409,1043.4780677915599,941.888727594749,892.372022908094,890.32040719135,775.002970042289,284.65691244095797,364.285932886298,3429,0,-808,14894,4596,-184,113,-150,682849,500,9.645555
916.9203857202659,1424.95619528799,1112.7748634049199,963.857292064407,842.227413535584,461.76954900717794,270.30081866949297,358.929031956824,3429,0,-808,14894,4596,-184,113,-150,682850,500,9.645603000000001
548.055679683079,869.4805768971561,716.041713856626,616.0448681698471,342.547397519054,-138.738043777295,161.707500350487,182.700585569371,3429,0,-808,14894,4596,-184,113,-150,682851,500,9.645655000000001
122.16352105783899,177.808065366931,-7.676450443919751,-30.540918784012298,-41.5940498408745,-455.47969411558,109.119977698138,13.634412929532099,3429,0,-808,14894,4596,-184,113,-150,682852,500,9.645709
45.42124924255771,122.81371211505,-5.865580194513309,43.465025068231604,173.32350096156003,-368.762056476029,54.2036390221328,-49.971412746701404,3429,0,-808,14894,4596,-184,113,-150,682853,500,9.645766
111.741257507703,177.81339127174599,55.5476831104606,93.6889259962772,314.000667058455,136.248063608422,-17.9164735562517,-8.43762018077541,3429,0,-808,14894,4596,-184,113,-150,682854,500,9.645823
-202.382389466977,-201.154109741328,-368.756335302722,-347.62869801934,17.647892081731698,258.316520443943,-140.810066418664,-186.046344817732,3429,0,-808,14894,4596,-184,113,-150,682855,500,9.645882
-359.538448405248,-294.151042141719,-378.32378521282203,-222.948684992996,254.661993344256,437.481504007475,-134.96393757878099,-271.992658675415,3429,0,-595,14663,4722,664,455,-266,682856,500,9.645953
-153.98796517076,-33.195175822824204,-69.75810672633821,-26.2796828084101,179.651220190804,535.885987325688,11.9264523906168,-139.224584028823,3429,0,-595,14663,4722,664,455,-266,682857,500,9.646018
-29.5042752821755,-72.62691598956009,-199.310129874502,-319.99504096122104,-514.527557984518,76.5426723848213,190.769406463602,80.33438702300191,3429,0,-595,14663,4722,664,455,-266,682858,500,9.646084
-96.37949782106442,-148.33200253790702,-242.768076963024,-243.33760197481004,-506.38246405078104,-234.961728504393,88.1288122393889,-0.97549146937672,3429,0,-595,14663,4722,664,455,-266,682859,500,9.646154000000001
-80.9286182173237,-138.61744411767,-228.036520371679,-127.878049932246,-262.801350097026,-411.392390047316,74.2161909508868,-4.75148462713696,3429,0,-595,14663,4722,664,455,-266,682860,500,9.646228
-41.817600813956204,-135.974985150388,-359.560685687233,-545.509579226811,-793.398837215092,-697.8970062645391,114.136695502617,37.232191423187,3429,0,-595,14663,4722,664,455,-266,682861,500,9.646303000000001
-125.424146754376,-179.072519063368,-364.216262801783,-467.98748191105597,-761.835019010847,-651.8664046774501,58.1545591567992,-49.5031480708858,3429,0,-595,14663,4722,664,455,-266,682862,500,9.64638
-102.644602530083,-152.062593609793,-272.406023917603,-318.871628601424,-606.417191162065,-575.5789166442701,60.5065206429572,-13.9163636181038,3429,0,-595,14663,4722,664,455,-266,682863,500,9.647171
-90.0829611340887,-106.502818384324,-181.73160826601102,-213.342741825909,-379.379178455943,-334.26588375598703,55.870513509959004,-7.592076847795401,3429,0,-595,14663,4722,664,455,-266,682864,500,9.647265
-109.474534147128,-100.26391226879801,-168.700852725306,-139.929446181166,-232.673702826287,-78.0657789441757,26.4465511359158,-31.158857198664897,3429,0,-595,14663,4722,664,455,-266,682865,500,9.647352000000001
-136.569623941527,-107.017684622551,-119.057592203724,-55.502477898204205,-112.634788303258,148.106856874831,-4.598500045889519,-84.2425056846114,3429,0,-639,14607,4850,1499,773,-217,682866,500,9.647440000000001
-87.79627988100401,-34.1832161939237,-6.42983530880883,100.415837032924,73.48426711608771,363.49930763623,39.2752853115671,-21.385381446220002,3429,0,-639,14607,4850,1499,773,-217,682867,500,9.64753
-52.547266040230205,-36.787921763141604,-26.382810785085898,75.5088015120709,158.895335729729,406.25710061797895,98.49958214192881,62.550051152007704,3429,0,-639,14607,4850,1499,773,-217,682868,500,9.647624
-44.56752374322971,-40.3524032484274,-33.1668803145876,22.091196244728103,176.652571380546,136.428671805828,21.830937984923395,42.0852457287256,3429,0,-639,14607,4850,1499,773,-217,682869,500,9.647717
-30.723204931971804,-54.80199808964971,-77.62728899472859,-118.109878581454,-205.30487697309601,-254.253824049607,62.3871766822995,47.711753404000795,3429,0,-639,14607,4850,1499,773,-217,682870,500,9.647821
-72.7003578781732,-135.649999662652,-196.060409370228,-307.236573494563,-577.515721630305,-486.016897063178,66.6596425408497,14.5100215178682,3429,0,-639,14607,4850,1499,773,-217,682871,500,9.647927000000001
-377.493219378433,-669.62511346431,-900.3109170264801,-1049.49360410843,-1429.0102434849803,-1035.8467343124198,6.2826312491670295,-116.658543870086,3429,0,-639,14607,4850,1499,773,-217,682872,500,9.649199000000001
-818.583296597702,-1679.8664606628,-1871.9930123869601,-1395.8729824914499,-2158.51580472253,-1311.45200540114,26.159053396433603,-189.54098449694,3429,0,-639,14607,4850,1499,773,-217,682873,500,9.649324
-992.777732074435,-1903.29783469252,-1155.01749652845,610.350385256781,-913.196604816505,-748.817240681557,31.873788080411,-237.65593521075803,3429,0,-639,14607,4850,1499,773,-217,682874,500,9.649459
-1107.12062524605,-1743.25954197242,-620.855731041287,1149.5705897451599,2210.6875017345,1351.1025352505999,106.08440097596001,-288.1419500052,3429,0,-639,14607,4850,1499,773,-217,682875,500,9.649582
-1200.11726445082,-1547.38902965491,-371.589085247484,293.74845445799303,2005.1804292301802,1614.14015284023,-4.47893887123792,-438.354574179626,3429,0,-756,14730,4924,1249,539,-160,682876,500,9.649714000000001
-664.8515927832921,-201.15812299645,1269.79911677015,2037.3112101280103,1965.13541613103,1047.0327725191,-266.698334389308,-454.505916765309,3429,0,-756,14730,4924,1249,539,-160,682877,500,9.649836
690.552762631356,1395.58692849334,1219.15889136295,1363.09845179494,1637.32696132344,1092.1577372323402,-91.3655927616637,48.297824764042204,3429,0,-756,14730,4924,1249,539,-160,682878,500,9.650059
1195.25084536659,1878.2227019172897,1206.8655810717,785.6950865710099,925.986836908851,913.083429090795,-46.412061369163,271.540519426111,3429,0,-756,14730,4924,1249,539,-160,682879,500,9.650203000000001
874.752520574781,1235.79940746166,770.34877865226,188.64025983045602,-88.5428563049354,-102.512312190491,9.90687436651206,300.191713394481,3429,0,-756,14730,4924,1249,539,-160,682880,500,9.708638
870.258536470181,1164.80424061429,661.226694120793,-159.485705420986,-436.51475452445396,-432.655218498548,156.94677812990298,381.141892017913,3429,0,-756,14730,4924,1249,539,-160,682881,500,9.7087
786.2868282950369,1134.39980282099,959.883594303392,650.481352900184,528.639734811848,99.9384013910894,209.72591199301002,339.82917999092,3429,0,-756,14730,4924,1249,539,-160,682882,500,9.70875
544.333491970348,763.475571931922,671.444195332937,647.3611708635871,196.80686480234698,-260.544516775,198.23795945203202,248.337981526623,3429,0,-756,14730,4924,1249,539,-160,682883,500,9.708802
152.343344380963,256.041453774087,75.5378497000784,37.0755792103009,-492.61350117399695,-636.39049125975,121.298434777476,33.7612814703025,3429,0,-756,14730,4924,1249,539,-160,682884,500,9.708855
-356.988467872405,-336.49061852938,-541.748527285876,-820.9831210661799,-1136.6365677304,-739.2065047407519,-18.2848032093607,-298.380446612835,3429,0,-756,14730,4924,1249,539,-160,682885,500,9.708911
-424.68495780995005,-472.436734473216,-680.269349700771,-1128.69009594523,-861.3072562763119,-312.03654874349,-98.4869485735544,-314.326409119763,3429,0,-749,15006,4857,390,482,-153,682886,500,9.708969
-107.93334078616999,-140.599639475928,-333.079222014174,-864.0873275323249,-726.519405061437,79.00509063107891,-23.6530064317049,-101.49926536565201,3429,0,-749,15006,4857,390,482,-153,682887,500,9.709027
-55.494553372846,-63.32501454767771,-246.598216742859,-700.1421079181599,-536.742720375216,78.5930681632017,6.52251417934895,-44.362814808962895,3429,0,-749,15006,4857,390,482,-153,682888,500,9.709089
-103.08306316493,-77.4438087022863,-142.306317342678,-391.14229034548,-196.277949322452,-135.472342476889,-48.14748148061339,-116.13140387658501,3429,0,-749,15006,4857,390,482,-153,682889,500,9.709155
-169.948177425453,-132.12684902444,-161.54200639028602,-411.934642919863,-510.960955522984,-346.85922688059503,-75.30172933696299,-176.067994237179,3429,0,-749,15006,4857,390,482,-153,682890,500,9.709222
-190.259295604425,-234.815401223954,-311.705654827529,-614.306752444856,-730.269551746111,-587.392621873238,-61.370328014018,-174.63067642738997,3429,0,-749,15006,4857,390,482,-153,682891,500,9.709295000000001
-191.42812856863,-273.60636890481703,-322.844870542758,-513.022451417462,-503.5999701377,-603.293813102529,-65.4979249576572,-158.298262324883,3429,0,-749,15006,4857,390,482,-153,682892,500,9.709368000000001
-201.51857179869,-268.177351399907,-318.926121706027,-482.545083805308,-511.28412461950205,-569.285450766503,-68.5776613121852,-158.06353470147602,3429,0,-749,15006,4857,390,482,-153,682893,500,9.709442000000001
-195.575160932378,-228.02448965702203,-248.46279675141002,-393.798350633646,-434.383828376594,-451.21101106912806,-89.50368106417591,-184.656686746632,3429,0,-749,15006,4857,390,482,-153,682894,500,9.709519
-134.04850592682502,-89.98322235187521,-25.832730795489603,-100.438941878616,-275.945866733266,-233.231242003909,-78.36498800769908,-131.410801388207,3429,0,-749,15006,4857,390,482,-153,682895,500,9.709605
-129.928463997901,-45.0869177635759,111.537242095103,151.498627659021,-233.75644693986402,-160.07013406424102,-81.2747665164643,-122.54952215158801,3427,0,-749,15236,4823,-315,363,127,682896,500,9.709706
-64.2425057777145,6.20672242110595,112.03789297048901,144.891307494283,289.882234992518,502.46892060735297,31.129548755125104,-51.188077575643504,3427,0,-749,15236,4823,-315,363,127,682897,500,9.709793000000001
5.594429428689179,100.584409393603,245.68989780964299,342.078801338357,547.602657089476,567.423046932265,4.99197075655684,-23.4468640588457,3427,0,-749,15236,4823,-315,363,127,682898,500,9.709884
-147.046386604692,-101.363066799357,-56.603883206262296,-57.469843255676096,53.7922797365172,62.1271583181224,-110.256566736614,-152.069323982578,3427,0,-749,15236,4823,-315,363,127,682899,500,9.709972
-86.10732439617279,-76.1980224055005,-67.9277769038454,-37.6345410543145,-147.654661852226,-271.899238565471,-47.1747373359976,-88.2803175057052,3427,0,-749,15236,4823,-315,363,127,682900,500,9.710067
-65.67573157514559,-77.18164856743529,-25.445295776473397,-8.10799937296542,-142.862189210107,-328.463478263759,-0.7787525121821091,-71.99050872796221,3427,0,-749,15236,4823,-315,363,127,682901,500,9.71017
-123.008918136009,-141.74972529104,-88.8294358057901,-128.011803812755,-264.32973688413,-354.496079033648,6.281773018301459,-87.7011808608659,3427,0,-749,15236,4823,-315,363,127,682902,500,9.710272
5.215495955693769,101.561674293713,294.773518649745,303.128444178845,-382.28255637673993,-597.820116930292,-52.3333729508449,-72.40608552901541,3427,0,-749,15236,4823,-315,363,127,682903,500,9.710376
-28.1546896238578,-38.7741658214945,54.4706098774914,128.650043065543,-69.449011318502,-245.8093306644,36.8599592689425,-35.436733904061796,3427,0,-749,15236,4823,-315,363,127,682904,500,9.710478
-172.40663290527303,-430.76129659602896,-450.15132435422896,-389.47825471946294,-318.011015049415,88.89654836582491,169.656597248162,-12.840106743620698,3427,0,-749,15236,4823,-315,363,127,682905,500,9.711634
-127.03237250063101,-346.800724615226,-337.300005988218,-174.692446692905,-159.995554330846,341.906981538632,171.60122176935,-47.168696502223604,3427,0,-750,15237,4827,-830,196,98,682906,500,9.711757
29.079829084716,41.2050758409314,232.27231257548598,252.067203589802,479.01360569009597,665.281675726117,203.327218321385,78.92640467500308,3427,0,-750,15237,4827,-830,196,98,682907,500,9.711875000000001
7.348296473064691,-131.140259070788,196.48753891652402,230.276824288769,104.35290366224899,292.94461256742903,202.849168342305,173.63136747060298,3427,0,-750,15237,4827,-830,196,98,682908,500,9.711993000000001
-130.380459546548,-140.341333434219,361.878679152462,915.3031299787691,783.762876152759,303.86306928627897,-42.092454722209396,-93.58304007165131,3427,0,-750,15237,4827,-830,196,98,682909,500,9.712113
11.864790369611,192.42671959567798,698.102099234471,1311.5025871603,1671.2944362255498,386.182989258319,-176.649040084274,-112.995264636469,3427,0,-750,15237,4827,-830,196,98,682910,500,9.712233000000001
-96.1033288696199,-279.927827141364,277.833498675493,662.2505675875,930.8518927819679,278.647968712845,51.2115233737277,-0.9861308366525919,3427,0,-750,15237,4827,-830,196,98,682911,500,9.712365
163.972986320499,298.05462891201,649.849292357103,500.066019138379,403.33733464870596,136.670028779248,248.399699016358,131.486709323828,3427,0,-750,15237,4827,-830,196,98,682912,500,9.771496
313.470482828212,524.971435207641,609.757948521874,593.292485753977,415.04246823076403,-131.733547332173,108.223181852081,101.313196086208,3427,0,-750,15237,4827,-830,196,98,682913,500,9.771565
547.544709050242,885.177188829286,528.405992744025,196.408311123232,-188.54379971046,-501.123537725012,50.286367370747,85.4249576203292,3427,0,-750,15237,4827,-830,196,98,682914,500,9.771616
528.2503136786979,695.283321465598,338.737124907668,57.8779524816491,27.305519364948896,-309.38307402731203,-14.8788853629376,144.262748285779,3427,0,-750,15237,4827,-830,196,98,682915,500,9.771667
84.8464777960908,267.246938665863,292.535491149174,427.885868617333,541.563401330437,253.623707028979,-34.5111995137413,9.57334500399884,3427,0,-723,15095,4786,-1221,263,-117,682916,500,9.771722
-23.0997724117478,-44.15510190965139,-196.311502028955,-276.014592857595,-324.973030238703,478.672296676086,132.927305721387,39.5399336935952,3427,0,-723,15095,4786,-1221,263,-117,682917,500,9.771780000000001
82.9646013322345,-6.83671699184924,-307.385049261735,-579.578005797346,-750.383418091427,210.974823931931,194.92004014062698,137.69924692635,3427,0,-723,15095,4786,-1221,263,-117,682918,500,9.771837000000001
-112.410169530747,-194.570748486673,-403.147022282239,-533.504128777073,-592.091581866815,66.8553333130549,37.506791583786296,-46.6028354623122,3427,0,-723,15095,4786,-1221,263,-117,682919,500,9.771897000000001
-51.9354230990866,-122.572470479412,-259.198213273543,-424.38492206743103,-541.090343226097,-136.085564212583,50.000941922946396,-24.8835700675845,3427,0,-723,15095,4786,-1221,263,-117,682920,500,9.77196
11.7611479119805,-53.4559781992575,-161.755425586482,-292.761816841958,-396.29887464139,-444.805176882772,84.199524019903,53.208983096759795,3427,0,-723,15095,4786,-1221,263,-117,682921,500,9.772025000000001
-12.787846722872901,-11.0379066811875,-29.748274375801,-3.77150764939142,41.8426559255167,-387.928456779686,-49.975384327583,-15.756460454897,3427,0,-723,15095,4786,-1221,263,-117,682922,500,9.772094000000001
-111.560747077223,-20.8239181191893,150.298875667271,485.32807635644,706.0539932360119,-244.297111488821,-198.372719731124,-168.32849121023898,3427,0,-723,15095,4786,-1221,263,-117,682923,500,9.772165000000001
-54.0713923966687,56.962765997042894,294.30435838946096,773.5265592186481,1014.1318779359599,176.79287942824902,-140.197379069345,-121.233115679934,3427,0,-723,15095,4786,-1221,263,-117,682924,500,9.772236000000001
77.233137555042,83.09476859949059,197.007126382669,452.90423878550104,173.52703970726003,100.713027927675,4.70665090047987,77.3220779902767,3427,0,-723,15095,4786,-1221,263,-117,682925,500,9.772311
-120.04759644778099,-291.582571267267,-218.07535946322602,-13.7876626241487,-532.368995139928,32.5355211126735,68.30125767429129,61.7267581090564,3427,0,-771,14957,4765,-737,438,113,682926,500,9.772388000000001
-405.290924894769,-655.6070890513951,-502.753781110281,-60.2588577188435,-202.889131245523,302.088115400402,-52.744035166280796,-123.606845588423,3427,0,-771,14957,4765,-737,438,113,682927,500,9.772468
-414.669803669327,-737.804799698992,-623.86431348219,-121.05355878526501,13.1721146851487,110.14569772640199,54.2984854089445,-83.0282734499779,3427,0,-771,14957,4765,-737,438,113,682928,500,9.772557
-369.25924703580705,-488.029583238298,-363.82688462699303,316.782568915485,701.5454303896989,-488.82756496319803,-55.64079516986379,-158.22775049728799,3427,0,-771,14957,4765,-737,438,113,682929,500,9.772644000000001
-162.420639235061,-17.761456843582,103.651727120974,557.345615730621,567.416734721512,-423.435485970112,-166.19248290918802,-157.9509711063,3427,0,-771,14957,4765,-737,438,113,682930,500,9.772734
-112.189297066798,-76.0758027720731,-382.74546936061205,-1123.0476317939801,-1552.5518050016,-171.025352869357,98.29150061169642,-3.6407780679874104,3427,0,-771,14957,4765,-737,438,113,682931,500,9.772833
-31.774699064524604,-29.315585409989602,-378.10542252997396,-1108.94362847059,-1488.5624661691,-445.46485303138604,72.2761234735954,-26.1567860915093,3427,0,-771,14957,4765,-737,438,113,682932,500,9.772934000000001
-142.168597303942,-161.018735390855,-353.633560450748,-765.048482841812,-1011.91536377446,-538.579140295682,-64.7167970084702,-121.92781664885099,3427,0,-771,14957,4765,-737,438,113,682933,500,9.773032
-285.959458100639,-349.70191290287806,-585.8399651367221,-936.203413090814,-462.674891712872,112.81271385704201,-112.54676230513701,-197.616912567755,3427,0,-771,14957,4765,-737,438,113,682934,500,9.77313
-98.0197002813802,-41.1294812724227,-216.88837304536702,-686.817077901738,-26.6059389612928,503.65411961061204,54.87417642108629,-81.55377776583191,3427,0,-771,14957,4765,-737,438,113,682935,500,9.773227
210.80148285240298,345.078360293643,282.61381901253503,-288.474909831537,-302.535099953413,305.27219464484403,368.270434573467,176.162644651835,3427,0,-808,14918,4817,204,299,322,682936,500,9.773339
246.45264919471802,377.64482372941,422.09355210140296,64.1605508303619,-293.7764397469,281.273758444004,300.115020944679,211.035910510924,3427,0,-808,14918,4817,204,299,322,682937,500,9.773470000000001
369.098613822891,464.4458325546,481.30897110980004,255.37793223315398,97.4766868210281,533.825441342953,166.217945427867,257.390361162019,3427,0,-808,14918,4817,204,299,322,682938,500,9.77359
193.06837912613997,141.714943650062,260.523331172531,28.811460656172105,-136.257589822228,195.89830888534198,44.917641222360494,178.937562719104,3427,0,-808,14918,4817,204,299,322,682939,500,9.775141000000001
-256.03891461875196,-574.489809876657,-176.139578586328,-259.520326935832,-518.117122545693,-132.847802679869,46.3673979018931,51.7701350888237,3427,0,-808,14918,4817,204,299,322,682940,500,9.775277
-799.8961643793449,-1408.92770919716,-627.2175336072689,-294.810979987204,-299.933712125727,-224.94674903497798,1.0911560616223102,-159.27345901425,3427,0,-808,14918,4817,204,299,322,682941,500,9.775400000000001
-915.5820160497681,-1522.36142936186,-566.821042881114,-45.437927638704394,-66.5757380141004,-286.074366405606,-38.650995398697,-208.67592431884302,3427,0,-808,14918,4817,204,299,322,682942,500,9.775536
-798.244399993593,-1141.42072947707,-449.51925135566904,41.8233755333349,-252.508976695943,-548.157904307067,-122.61392005061501,-289.253154489794,3427,0,-808,14918,4817,204,299,322,682943,500,9.775659000000001
80.85638363540059,427.30316492682294,244.695666016778,357.548724567023,-75.38050777433091,-410.442318087153,-127.017563939211,-114.41375483328001,3427,0,-808,14918,4817,204,299,322,682944,500,9.833496
367.634364767058,761.068645981024,359.82138462469396,249.956393433153,-64.42916700130439,-117.418485479837,-81.67391879239591,-33.1778880818747,3427,0,-808,14918,4817,204,299,322,682945,500,9.833527
183.75593830627602,472.526078147464,302.570956882089,63.20440164057071,84.5186758636264,254.43166448228297,20.743971267540502,0.33874586340971297,3427,0,-741,15024,4884,34,283,177,682946,500,9.833553
67.7537988520926,310.792780056363,226.148666480207,-188.79269056316102,190.859570835775,409.96027545741504,26.4824279724271,-16.250497318920697,3427,0,-741,15024,4884,34,283,177,682947,500,9.833579
434.170814999728,656.883842412382,285.821346070385,-246.836194809905,-0.271379742451245,282.300391766126,127.547827711329,198.910943723633,3427,0,-741,15024,4884,34,283,177,682948,500,9.833607
441.227624450577,695.5345941311681,328.83768991846597,28.759825528424695,-141.315688371134,41.94280508760129,42.509328497515504,160.95362025289802,3427,0,-741,15024,4884,34,283,177,682949,500,9.833634
315.01699809861,488.22006392129697,294.785488775582,116.076314674487,-94.76256200677021,-17.5342995430692,98.64933288196329,115.51401646563299,3427,0,-741,15024,4884,34,283,177,682950,500,9.833663000000001
143.664034161513,276.519063608488,64.3851972648408,19.4485414658848,-177.974081572291,-325.698292741785,3.03496603685198,-22.7748275890481,3427,0,-741,15024,4884,34,283,177,682951,500,9.833693
8.23263337882236,89.3133181782905,-95.5656746372115,2.5326320701569798,-245.233293798927,-490.87673102761596,-63.5606085569016,-99.7110744756646,3427,0,-741,15024,4884,34,283,177,682952,500,9.833724
-189.107608622231,-145.245452535688,-306.18391162250197,-245.71501688769797,-371.26774057358904,-465.16139878612,-110.440876354114,-221.394971977803,3427,0,-741,15024,4884,34,283,177,682953,500,9.833756000000001
-260.75154250414903,-282.46349954826303,-461.491419940023,-462.03431067214103,-338.701813560008,-387.080393190146,-112.01279619493299,-190.501182043925,3427,0,-741,15024,4884,34,283,177,682954,500,9.833791
-316.584375526494,-327.52599860355303,-415.098367941566,-385.46020690078103,-74.98639314921459,-154.934844081406,-275.541335270042,-239.485417013406,3427,0,-741,15024,4884,34,283,177,682955,500,9.833825000000001
-195.814466252807,-189.163600194152,-320.574811517028,-350.570822312264,-118.647624465317,-138.343913433782,-175.661677060707,-144.749085734715,3427,0,-694,15203,4817,-257,565,157,682956,500,9.833861
-271.319299114868,-210.527284432668,-257.031460397062,-26.9232094056497,258.595709022426,-225.30435301439098,-231.05308035586498,-217.14575510343997,3427,0,-694,15203,4817,-257,565,157,682957,500,9.833898000000001
-168.98375873745002,-82.553981432924,-40.240870409295894,396.033418020437,666.892814620223,-25.964824526396104,-159.537923372409,-141.555379144615,3427,0,-694,15203,4817,-257,565,157,682958,500,9.833937
-193.13156837309398,-164.86226661445102,-160.054694585619,-10.1229657491494,244.261855709803,-25.875357903540102,-192.25918927200803,-165.284290780895,3427,0,-694,15203,4817,-257,565,157,682959,500,9.833977
-239.826411916147,-290.85481505934104,-374.759414556203,-487.725406002166,-155.213511490787,216.688098807645,-163.94577200443,-138.029335265746,3427,0,-694,15203,4817,-257,565,157,682960,500,9.83402
-387.29085010738294,-331.78789236012403,-239.950785505935,-80.8727850923897,73.3847063803405,431.370307440055,-237.34161636245,-270.108724449645,3427,0,-694,15203,4817,-257,565,157,682961,500,9.834072
-224.83723742753503,-82.0228743063053,89.9455539963674,272.208736523666,191.80075248406501,432.680467512517,-143.855966240168,-188.86017493868698,3427,0,-694,15203,4817,-257,565,157,682962,500,9.834117
-62.41600372825629,17.551890418632,-10.5984769250499,-245.67639710800702,48.3689897989971,268.995409311319,-12.7759999416885,-48.0003107347293,3427,0,-694,15203,4817,-257,565,157,682963,500,9.834163
59.2232857989147,54.270224974141506,-109.886515773484,-637.835079891345,-581.202942946838,15.9192106089322,130.580011798069,96.07113465305879,3427,0,-694,15203,4817,-257,565,157,682964,500,9.83421
-190.33237425549302,-158.90241788083202,-127.436903272406,-196.287133116857,-453.60539512540004,103.876493707066,23.7041259725811,-92.5778390874621,3427,0,-694,15203,4817,-257,565,157,682965,500,9.834261000000001
-397.01430860839895,-260.09467327990603,-51.350974751520006,252.67324244137902,282.576748189225,708.4731179882069,-92.769251509977,-318.617216618615,3427,0,-753,15226,4589,-497,941,-152,682966,500,9.834314000000001
-110.188997459016,-34.0642738374881,128.13017993606599,370.068386844621,288.094692735584,44.42782201326921,-164.059654021228,-191.02891734824502,3427,0,-753,15226,4589,-497,941,-152,682967,500,9.834367
127.34648341740801,248.769610674819,392.81465116911596,528.714092786919,240.86387487236098,-573.564376790717,-21.7916542883613,49.254398099728895,3427,0,-753,15226,4589,-497,941,-152,682968,500,9.834420000000001
163.161410818895,211.056692263344,249.723642437835,87.12265624426071,-75.0918240588217,-154.295549578732,33.2384024320636,104.67959603876801,3427,0,-753,15226,4589,-497,941,-152,682969,500,9.834481
159.766581655917,159.89399813755898,125.30341884715,-227.720635540842,-331.449185835605,-220.235877865343,63.7300387177384,124.62742724816799,3427,0,-753,15226,4589,-497,941,-152,682970,500,9.834537000000001
-2.59152612110483,17.939284148509604,203.168765830458,400.46694864937996,407.166588566062,186.68536814127603,-72.1172281365143,-69.3341860170476,3427,0,-753,15226,4589,-497,941,-152,682971,500,9.834599
-137.084629303165,-116.280950309243,222.41648909263301,751.488883364451,830.468830384052,612.367639493663,-114.840571077249,-155.533814844326,3427,0,-753,15226,4589,-497,941,-152,682972,500,9.835206000000001
29.2248020695988,25.453469098196397,323.89606555341703,767.1803242198081,722.760585202661,477.205870569218,-49.70128879667029,23.6856144330231,3427,0,-753,15226,4589,-497,941,-152,682973,500,9.835269
4.64445070209331,-107.86329158302401,17.653447476448502,360.303546466603,675.993803330668,1045.29812985822,30.5264358600834,-40.814292326686,3427,0,-753,15226,4589,-497,941,-152,682974,500,9.881423
-201.484696892468,-367.70425425446604,-412.958828969626,-575.148112675495,-215.893567438558,650.271222573123,273.71922922990103,-58.794805455952904,3427,0,-753,15226,4589,-497,941,-152,682975,500,9.88195
-308.638446022611,-391.749313327018,-457.572668451699,-1069.59705825406,-329.46260703154303,290.957965587906,216.73419746162799,-42.761100953444796,3427,0,-673,15295,4301,-1291,1328,-487,682976,500,9.882011
-10.980979961023,1.8947045048698798,-81.25675049005079,-577.995618083689,-443.587983469683,163.688232923567,63.0651465448318,130.08596720465,3427,0,-673,15295,4301,-1291,1328,-487,682977,500,9.882066
275.009852283896,72.624080910231,-236.32254018599602,-546.652584655269,-1049.16893404059,-525.4527398274511,109.068123323144,364.36920978385,3427,0,-673,15295,4301,-1291,1328,-487,682978,500,9.882121000000001
-242.547263089364,-407.074340498308,-284.105518435244,-520.648242786003,-760.724653521873,-239.052096228756,242.93576290912497,127.65797170426201,3427,0,-673,15295,4301,-1291,1328,-487,682979,500,9.882178000000001
-353.15194951513,-375.943291671225,-57.00667210132811,-222.661732048728,-864.4073654286909,-561.4100795511621,363.197200663213,83.70327330334109,3427,0,-673,15295,4301,-1291,1328,-487,682980,500,9.882235000000001
-435.530419629591,-942.4277669828149,-848.3502576112511,-823.753087149438,-1389.1035622960198,-1230.5129242871199,232.512269585452,47.2504136168864,3427,0,-673,15295,4301,-1291,1328,-487,682981,500,9.882296
-733.499764106091,-1644.9005743484,-1453.88530904136,-1145.01932063469,-1328.8326131315303,-1090.25235321431,105.43767976062401,-64.273800091818,3427,0,-673,15295,4301,-1291,1328,-487,682982,500,9.882363
-652.083249360672,-970.147864890401,-1031.2240770841001,-770.5813058962809,-709.7830292079599,-496.56476306955994,-63.7789976145723,-309.552291356376,3427,0,-673,15295,4301,-1291,1328,-487,682983,500,9.882432000000001
-525.945538565138,-530.35744036024,-894.036958730547,-1039.76783403553,-868.5895487799719,-677.443686372717,-307.398488070525,-336.112700775382,3427,0,-673,15295,4301,-1291,1328,-487,682984,500,9.882505
-620.9803074268569,-134.794339773478,305.77433088072604,-234.293526643596,-291.000343442487,-113.708777206542,-139.533920269401,-315.62216700776503,3427,0,-673,15295,4301,-1291,1328,-487,682985,500,9.882586
-41.0439590523019,504.27089608134696,552.494103009347,78.1706583751075,-23.7051698771829,76.29839286266359,-103.940904283896,-113.519563874113,3427,0,-582,15350,4242,-1556,1687,-483,682986,500,9.882660000000001
-109.314494423976,912.7366469706179,779.2175196848109,447.34830156655505,129.947161276068,86.04920926812339,-316.231113462942,-615.521202449803,3427,0,-582,15350,4242,-1556,1687,-483,682987,500,9.882734000000001
-406.283581247291,1273.33465068275,1577.4644334279,1296.84635302515,710.974003666895,532.9232462940851,-371.827200000407,-1257.31048743601,3427,0,-582,15350,4242,-1556,1687,-483,682988,500,9.882814
-502.76646747556504,1059.96299623989,1496.15309799905,1303.91950783625,123.02779095099,180.192613647669,-422.739439767203,-1327.58175305277,3427,0,-582,15350,4242,-1556,1687,-483,682989,500,9.882894
187.034792931227,657.421273519401,536.333010198083,-2.8794022518850397,-319.45034602721,-345.02708756859596,-96.3694716363098,-117.971938283881,3427,0,-582,15350,4242,-1556,1687,-483,682990,500,9.882979
902.001971618098,266.836853582878,-372.765948595363,-1038.96007556014,-885.577377132926,-888.5180579596199,-13.564227204537001,804.2506283151449,3427,0,-582,15350,4242,-1556,1687,-483,682991,500,9.883066000000001
729.5336669863609,318.36787806835497,-69.0583623903804,-428.34271085978304,-649.602946498286,-927.3202639771629,-163.33539115684098,443.923597116489,3427,0,-582,15350,4242,-1556,1687,-483,682992,500,9.883156000000001
231.254223240976,269.868274041102,169.24701654293997,30.572965094965202,-174.07574600726397,-584.996709354455,-183.036561010871,-52.0393744524335,3427,0,-582,15350,4242,-1556,1687,-483,682993,500,9.883256000000001
-207.14956737047797,169.295184359653,369.788719931734,436.056761492277,315.39490885305,-85.93818367447241,-147.828479877324,-367.901206654147,3427,0,-582,15350,4242,-1556,1687,-483,682994,500,9.883352
-375.734010917222,-24.4345044695074,248.819030408864,236.23708704992902,234.292879514134,167.39870456000799,-86.2231219821842,-439.31757847196405,3427,0,-582,15350,4242,-1556,1687,-483,682995,500,9.883449
-369.28660806530405,-121.338075661799,228.724855547771,144.240563381492,249.594089237275,384.771771462052,-110.845878372143,-455.168834540877,3427,0,-1039,14794,4345,-1624,2140,-338,682996,500,9.883546
-277.443051442475,-568.8129546319831,20.060846840497103,166.674293259421,394.87519071958394,557.677882493648,-0.00730739359278232,-74.2995202923194,3427,0,-1039,14794,4345,-1624,2140,-338,682997,500,9.883677
355.84993209419196,-430.329702793388,-87.61730756924949,-26.8216069380869,146.790521433519,401.460367594438,176.028131905652,657.577647523372,3427,0,-1039,14794,4345,-1624,2140,-338,682998,500,9.944825
150.448613315675,-70.9597563773859,-7.123058088938709,-71.8194088264427,28.003908754792104,234.259218061576,-25.777728122659003,119.225434633554,3427,0,-1039,14794,4345,-1624,2140,-338,682999,500,9.944901
-978.565124564659,640.680139206233,802.7697881546339,642.969689099642,631.1656365087259,516.322682607046,-461.574075073062,-1667.51015838573,3427,0,-1039,14794,4345,-1624,2140,-338,683000,500,9.944953
-1710.8492278558301,482.823787154397,1001.30084097642,936.402694928518,869.0217637096359,409.269975228235,-761.7294024616131,-2443.0903422718397,3427,0,-1039,14794,4345,-1624,2140,-338,683001,500,9.945023
-1325.89447401551,-36.791362711344796,723.296414588811,1083.03515969473,1145.61083564872,-5.51702597562689,-571.170881654019,-1525.4831721904902,3427,0,-1039,14794,4345,-1624,2140,-338,683002,500,9.94508
1187.8783114510002,450.786297384533,325.51074399414904,627.571261665056,616.74771971532,-936.840819931822,83.0973908046726,1151.5807974973,3427,0,-1039,14794,4345,-1624,2140,-338,683003,500,9.945138
1473.0399154202898,-189.68206177069803,-888.154645934352,-1180.68066765828,-1600.8663950337802,-1255.2811521797,175.675337755587,1646.6894256457501,3427,0,-1039,14794,4345,-1624,2140,-338,683004,500,9.945196000000001
495.50614504289103,-742.6452201312641,-880.221167514566,-1033.46862928057,-1173.1968274907301,-335.462731194682,91.1972039669636,805.91809929884,3427,0,-1039,14794,4345,-1624,2140,-338,683005,500,9.945258
-237.303164745361,-1272.77399549575,-834.589869714691,-468.69347432765096,-455.67925110144995,101.846582524886,34.601590057020104,352.24440056562895,3427,0,-1694,14132,4904,-746,332,-321,683006,500,9.945333
-15.899258399324,-475.54387677693705,-358.209779830417,12.528791416319999,-11.440541964286199,499.903484881623,90.01095809700199,305.695777382934,3427,0,-1694,14132,4904,-746,332,-321,683007,500,9.945402000000001
593.2827062770671,515.467215364566,40.6856798840454,374.454070269334,210.61435176243,454.72780088824203,98.01877721160419,438.59078258217795,3427,0,-1694,14132,4904,-746,332,-321,683008,500,9.945471000000001
484.305447731109,348.293051336077,-271.955398035352,262.796755108924,74.1268319727678,71.230941845919,-77.9203110759845,292.553799517802,3427,0,-1694,14132,4904,-746,332,-321,683009,500,9.945541
621.131662718049,397.84206124395104,-338.207507353742,359.22271312138804,137.096345952421,48.2814980562543,-72.78491553460479,332.17208505677996,3427,0,-1694,14132,4904,-746,332,-321,683010,500,9.945613
348.788873162703,60.1894010038814,-455.293809964787,354.062053454429,203.249114236183,-40.964251987927106,-137.27303399652,173.527083050692,3427,0,-1694,14132,4904,-746,332,-321,683011,500,9.94569
329.263685278507,102.387020447874,-414.881931433571,-385.426551826968,-68.3121842551045,-173.812492188241,-112.507031771063,172.874570188927,3427,0,-1694,14132,4904,-746,332,-321,683012,500,9.945767
356.675482058839,197.71596566576,-428.620731906733,-1637.38222848001,-695.2219996255881,-334.807316206046,-33.3898438264732,228.866961546126,3427,0,-1694,14132,4904,-746,332,-321,683013,500,9.945847
531.799167741206,645.6203784332611,494.93159247376,-488.64839336817397,-643.4970613931359,-344.716588001756,-6.93415407970315,251.35752362804502,3427,0,-1694,14132,4904,-746,332,-321,683014,500,9.945933
520.872014322929,584.076746676932,428.091254582629,-411.586616333399,-439.35588256202794,-35.4960349798785,45.028836945770294,274.551112577901,3427,0,-1694,14132,4904,-746,332,-321,683015,500,9.946028
664.091555865656,774.696555366972,698.9488011036299,-10.5159926222404,-362.95877757199895,15.465370873687801,40.6913650130737,360.05030852148803,3427,0,-1736,14122,5118,770,-185,386,683016,500,9.94612
633.57843696748,690.619063908467,631.5040087494999,280.209438211372,100.059582253307,284.413954355987,29.4502383198706,330.18685789860297,3427,0,-1736,14122,5118,770,-185,386,683017,500,9.947386
555.721682731382,675.139170244453,717.9136071775571,563.318362469028,553.316939135722,643.4049471631299,50.148214409127796,290.74592020898103,3427,0,-1736,14122,5118,770,-185,386,683018,500,9.947498000000001
204.54141493263901,315.98988716513804,447.454804559122,459.28370811871696,441.413234441978,355.92758475279,-106.30108736059601,57.01183678989761,3427,0,-1736,14122,5118,770,-185,386,683019,500,9.947618
-76.6741451726994,-156.942606579862,-12.4308885012288,366.467664612632,144.065345668932,-326.466032378376,-171.355342072668,-61.5123233632185,3427,0,-1736,14122,5118,770,-185,386,683020,500,9.947724000000001
53.061048114090205,-139.014860515832,-22.368534830166002,530.189108273567,266.804724497662,-743.9386893957851,-225.65302525652803,-25.5170342511265,3427,0,-1736,14122,5118,770,-185,386,683021,500,9.947835000000001
135.461720457854,-97.45562850031999,-173.293175699422,145.28477319038902,175.33918439009,-771.589024668967,-195.789108219091,10.0297530638054,3427,0,-1736,14122,5118,770,-185,386,683022,500,9.947956000000001
10.1288470757136,-79.2677219763864,-344.18871559353994,-604.492259616585,-403.914198425715,-632.9081678983059,-52.0096232570359,-45.298666603514,3427,0,-1736,14122,5118,770,-185,386,683023,500,9.948080000000001
4.61651858547702,69.8706758585759,-183.012873940868,-755.59094890338,-573.450876822608,-369.72852580092103,28.3641397420433,-40.3096007244894,3427,0,-1736,14122,5118,770,-185,386,683024,500,9.948197
199.90959443195598,291.674889271497,242.48141481180198,12.4547149713617,-82.9878763016604,48.1847384988214,-77.1037115169456,34.180983554339,3427,0,-1736,14122,5118,770,-185,386,683025,500,9.948331000000001
140.344486697431,238.41132694727298,371.485032423632,477.753517835401,519.609371058992,401.25250789255404,-165.351533304492,-38.3407016230049,3427,0,-1072,14274,5180,2004,775,261,683026,500,9.948449
110.336353751918,186.79730365157602,368.682338782586,597.361779906729,989.449072951364,935.726041134505,-35.8541557606077,33.1442197429715,3427,0,-1072,14274,5180,2004,775,261,683027,500,9.948564000000001
118.46098705110501,125.883036065614,122.432342147105,227.523536117282,431.811505636782,922.890476109518,152.64601084945,141.497508225031,3427,0,-1072,14274,5180,2004,775,261,683028,500,9.948705
-14.632457773404902,90.5681735717226,161.47661254252301,562.885968526243,-233.16014413134,635.905019592901,142.024468427466,56.699116647010705,3427,0,-1072,14274,5180,2004,775,261,683029,500,9.948847
-171.90068414245602,-94.3649244492408,-224.302691441146,-372.988135846826,-531.0761900371,197.454019979865,196.12350226263501,6.74482164881192,3427,0,-1072,14274,5180,2004,775,261,683030,500,10.008078000000001
-568.678574346908,-320.709744474385,-154.094840254867,-353.101609556557,-321.421713688993,-156.029724338034,124.32723133225201,-190.654113104334,3427,0,-1072,14274,5180,2004,775,261,683031,500,10.008105
-491.431017447409,-272.922693651053,-2.27674582309555,139.573659115413,-10.029396483732901,-328.206266397086,113.04743886779801,-145.093885141658,3427,0,-1072,14274,5180,2004,775,261,683032,500,10.008125000000001
-142.842354232271,-134.297034203191,53.2396635636687,328.960871895863,17.238250573340302,-508.15728458378,-18.3392283923458,-61.34080814593471,3427,0,-1072,14274,5180,2004,775,261,683033,500,10.008147000000001
201.398798676091,182.47083755163501,286.935035358998,742.5442962816161,226.020276881376,-139.280716285633,-155.040666403249,-37.262248909682995,3427,0,-1072,14274,5180,2004,775,261,683034,500,10.008169
260.10302993460203,309.445254596067,340.813965494395,831.941276130907,460.011098400952,264.74470134492697,-183.698066333542,-16.464155484340196,3427,0,-1072,14274,5180,2004,775,261,683035,500,10.008192000000001
-11.8597960784973,216.19771574623903,396.987933069235,684.671375345642,834.161300648004,894.263470645994,-109.634524073859,-76.4185877330601,3427,0,-314,14846,5160,3004,856,-156,683036,500,10.008216000000001
-106.520333687484,186.712169639883,523.994567536749,548.157410960644,784.245525013568,1212.7932208416198,213.932489211438,38.2842774322489,3427,0,-314,14846,5160,3004,856,-156,683037,500,10.00824
186.57271464809298,294.724495394039,502.320158754359,178.80258193530602,308.60516760090803,992.662148806266,444.01329610933294,282.727760207374,3427,0,-314,14846,5160,3004,856,-156,683038,500,10.008266
95.39352362428329,-205.802557224175,52.592062820564,-67.6910160609114,69.4415535041189,578.479327853187,274.698709173594,155.42771390976802,3427,0,-314,14846,5160,3004,856,-156,683039,500,10.008293
445.57882174829103,-11.404869849328001,347.825261362945,490.849458076933,-163.75691268075002,-175.383904222224,188.97491118748403,304.97899004037004,3427,0,-314,14846,5160,3004,856,-156,683040,500,10.008322000000001
443.56238843160105,122.928376423428,253.784437101102,113.242948222527,-594.773561179929,-738.964320593746,195.73886088910498,359.23858084366697,3427,0,-314,14846,5160,3004,856,-156,683041,500,10.00835
314.35421046111196,482.153421631083,125.133155728457,-282.508684721281,-739.154218019336,-691.280114458699,207.379395781551,162.38243136229,3427,0,-314,14846,5160,3004,856,-156,683042,500,10.00838
438.16503765486397,834.8861189924651,-91.35362529125999,-1160.2428341072198,-898.5965628734269,-568.6395429547989,27.073397903819604,33.5654709438095,3427,0,-314,14846,5160,3004,856,-156,683043,500,10.008410000000001
290.113558870537,518.364937058301,-46.759340613731204,-963.661955471936,-700.251397999469,-352.108533883991,-145.019554663741,-34.0193858634448,3427,0,-314,14846,5160,3004,856,-156,683044,500,10.008442
243.274167338212,293.225752504892,-58.3698987639509,-578.698852628499,-552.05548215998,-11.068188567180199,-123.16471921600201,74.1404250337509,3427,0,-314,14846,5160,3004,856,-156,683045,500,10.008475
186.078944781329,438.57268635765604,458.839844349306,523.9331468854219,-194.020595347043,417.138396493567,-133.377852102916,-1.90266896085814,3427,0,-118,15260,4797,1335,1894,-512,683046,500,10.008510000000001
304.490011142072,611.899735511513,763.8672816740581,952.9275863937219,289.73158879773104,734.6441418901669,-38.121106894745004,72.0658664730145,3427,0,-118,15260,4797,1335,1894,-512,683047,500,10.008545
44.780595198826596,-6.98999132937752,-338.114124815911,-495.690557250084,41.0028632667672,572.151641782199,91.7224503578036,66.6019124190789,3427,0,-118,15260,4797,1335,1894,-512,683048,500,10.008582
200.717334190995,-75.5653886571527,-552.817935714731,-460.423401765584,-360.639555930858,-403.206076112925,50.0103317450266,161.571952584083,3427,0,-118,15260,4797,1335,1894,-512,683049,500,10.008618
308.986559099023,296.948137964006,217.996195482323,332.649818132049,-22.8736857564363,-409.390211746388,-11.057780809293,156.968803068972,3427,0,-118,15260,4797,1335,1894,-512,683050,500,10.008657000000001
-108.80642080580601,256.368410130264,580.683724146918,533.470908118063,690.2861994373379,379.515963725804,39.9367316661519,-22.4823664769065,3427,0,-118,15260,4797,1335,1894,-512,683051,500,10.009211
0.338990364281926,424.972095742938,823.5447246956171,545.932696167903,646.2222390790989,282.071309237101,66.44295609008991,126.257080497337,3427,0,-118,15260,4797,1335,1894,-512,683052,500,10.009257
341.65177510678797,593.441108157043,821.8602644904751,648.648357105063,657.33923466978,322.969446960778,114.47798689146299,268.165410579531,3427,0,-118,15260,4797,1335,1894,-512,683053,500,10.009301
630.989080453786,829.3452668125971,862.895686499658,718.2559942516091,704.066480631183,624.699456728878,249.358346046938,328.791391283507,3427,0,-118,15260,4797,1335,1894,-512,683054,500,10.009343000000001
365.15925218205706,580.3040133375911,793.078975370154,834.666026345862,620.995566795347,702.025332775549,195.72025954624402,153.12951802893102,3427,0,-118,15260,4797,1335,1894,-512,683055,500,10.009541
-155.739298198168,11.3824362871237,361.385617199936,480.541360956267,512.106515691616,563.708838725113,12.563555021013599,-182.325371572282,3427,0,-775,15264,4918,-594,763,-169,683056,500,10.009591
-733.72661052781,-456.029097599443,212.324204368866,724.086618819216,423.438340472116,387.347650379059,-75.8880095053464,-518.552737620892,3427,0,-775,15264,4918,-594,763,-169,683057,500,10.009639
-736.044461099897,-583.687037242576,-129.658356243628,400.114232128311,-17.9128498223727,-119.73137025750499,-87.7073118980625,-483.86863423616205,3427,0,-775,15264,4918,-594,763,-169,683058,500,10.009688
-338.818486064061,-161.179961494985,126.89506342122299,548.226356390922,-605.79500164109,-939.4659351982989,-211.66890557692403,-428.730004968005,3427,0,-775,15264,4918,-594,763,-169,683059,500,10.009739000000001
-1208.5974820363,-1059.66283088969,-839.086974407895,-1143.9632426085,-917.0067757889631,-777.04307997151,-96.5688236037386,-922.811063692556,3427,0,-775,15264,4918,-594,763,-169,683060,500,10.009788
-1321.16395866958,-1061.45609583799,-606.4400208791491,-657.553021317668,-861.5788238939999,-899.835737821937,-269.101231251552,-1081.75590251724,3427,0,-775,15264,4918,-594,763,-169,683061,500,10.009839000000001
-785.344065254845,-1026.41671164485,-640.0172941604401,-573.695974345639,-659.73479592675,-635.486123826879,-145.319628312369,-471.501299005235,3427,0,-775,15264,4918,-594,763,-169,683062,500,10.05648
-144.885003214004,-778.1191749002319,-968.2927963095719,-873.4559299958349,-714.78452585687,-632.786762993783,29.590465577144602,149.038482604781,3427,0,-775,15264,4918,-594,763,-169,683063,500,10.056542
-66.9286217984627,-56.8873394919792,-526.252482049866,-606.97787431028,-358.701548681885,-532.7091505602,-175.308434291626,-194.160695977509,3427,0,-775,15264,4918,-594,763,-169,683064,500,10.056603
-987.664384918869,-494.42433469754206,-239.767332310556,49.7197895206918,281.135220098222,69.9689729838283,-235.535996899591,-799.390448865015,3427,0,-775,15264,4918,-594,763,-169,683065,500,10.056656
-1162.48491245758,-686.9851939120559,-325.530222212081,183.45420439227001,647.6405331382119,844.9862890919901,-181.715131877572,-867.364069951582,3427,0,-1268,15210,4844,-307,192,-678,683066,500,10.056714000000001
-785.5350128998109,-543.215685224044,-271.084869880811,66.0810538890655,568.320235730876,1252.5435135459402,-101.72809385031,-478.32527781534003,3427,0,-1268,15210,4844,-307,192,-678,683067,500,10.05677
438.37898169588897,202.977504233131,237.82700956182097,308.913453181623,201.78175905550597,719.846846129745,149.18217736017002,362.003573758295,3427,0,-1268,15210,4844,-307,192,-678,683068,500,10.056827
1179.93100260396,842.457265068195,596.281145543442,623.232255670708,-153.2311415234,-619.110295958701,39.2046116813435,691.9699649529069,3427,0,-1268,15210,4844,-307,192,-678,683069,500,10.056886
838.9303788998799,632.2151646444111,678.942841482116,1104.52580947574,185.855226415326,-670.320995132264,6.123605784843679,515.94677519484,3427,0,-1268,15210,4844,-307,192,-678,683070,500,10.056949000000001
